accx,accy,accz,gyrox,gyroy,gyroz,magx,magy,magz,imu_time,fix_type,pdop,num_svs,latitude,longitude,altitude,course_deg,speed,time_of_day,roll,pitch,yaw,baro_pressure_mbar,baro_temp_c,mag_x_cal,mag_y_cal,mag_z_cal
0.45462185,-0.2525677,9.790442,0.043385506,0.029893517,0.018594503,-400.0,-276.0,-3.0,426708800.0,NoFix,12,0,0.0,0.0,0,0.0,0.0,0,-156.81984,87.3406,135.4083,981.27264,24.810272,120.5724,-363.3466,-473.18982
0.44084543,-0.26175198,9.785851,0.043385506,0.029893517,-0.016405523,-400.0,-274.0,-1.0,428011200.0,NoFix,12,0,0.0,0.0,0,0.0,0.0,0,-156.78777,87.340965,135.43576,981.27264,24.810272,120.544876,-359.51294,-469.43164
0.44543758,-0.25715983,9.781258,0.043385506,0.029893517,-0.016405523,-404.0,-282.0,-6.0,429313950.0,NoFix,12,0,0.0,0.0,0,0.0,0.0,0,-156.75989,87.34177,135.4608,981.27264,24.810272,127.95988,-375.0808,-478.64886
0.459214,-0.25715983,9.785851,0.008385479,-0.040106535,0.018594503,-399.0,-271.0,-7.0,430615940.0,NoFix,12,0,0.0,0.0,0,0.0,0.0,0,-156.73335,87.34052,135.48317,981.27313,24.814812,118.59684,-353.32147,-481.13336
0.46380612,-0.26634413,9.776666,0.043385506,-0.005106449,0.05359447,-400.0,-274.0,1.0,431918300.0,NoFix,12,0,0.0,0.0,0,0.0,0.0,0,-156.70877,87.339714,135.50186,981.27313,24.814812,120.56439,-359.6057,-465.5807
0.45462185,-0.26634413,9.776666,0.043385506,-0.005106449,0.088594496,-401.0,-271.0,3.0,433220670.0,NoFix,12,0,0.0,0.0,0,0.0,0.0,0,-156.68117,87.33905,135.52586,981.27313,24.814812,122.33224,-353.83237,-461.85913
0.44084543,-0.25715983,9.781258,0.07838553,-0.005106449,0.018594503,-399.0,-271.0,3.0,434523070.0,NoFix,12,0,0.0,0.0,0,0.0,0.0,0,-156.6689,87.339485,135.53323,981.27313,24.814812,118.694435,-353.7853,-461.87863
0.43625328,-0.23419914,9.781258,0.043385506,0.064893484,0.018594503,-399.0,-277.0,3.0,435825440.0,NoFix,12,0,0.0,0.0,0,0.0,0.0,0,-156.64723,87.34163,135.54712,981.27313,24.814812,118.83558,-365.56458,-461.60034
0.43625328,-0.21123843,9.781258,0.07838553,-0.005106449,-0.05140549,-400.0,-275.0,-2.0,437127800.0,NoFix,12,0,0.0,0.0,0,0.0,0.0,0,-156.66248,87.34288,135.52797,981.2718,24.814812,120.55864,-361.42975,-471.31073
0.44084543,-0.20205414,9.785851,0.008385479,0.029893517,-0.016405523,-398.0,-279.0,2.0,438430200.0,NoFix,12,0,0.0,0.0,0,0.0,0.0,0,-156.65494,87.344055,135.52571,981.2718,24.814812,117.05397,-369.42108,-463.4428
0.4500297,-0.22042271,9.795034,-0.026614487,-0.005106449,-0.016405523,-399.0,-275.0,-2.0,439732580.0,NoFix,12,0,0.0,0.0,0,0.0,0.0,0,-156.63208,87.34361,135.54242,981.2718,24.814812,118.73974,-361.40622,-471.3205
0.4500297,-0.23879129,9.795034,0.008385479,-0.005106449,-0.016405523,-403.0,-274.0,-1.0,441034940.0,NoFix,12,0,0.0,0.0,0,0.0,0.0,0,-156.6104,87.34347,135.56422,981.2718,24.814812,126.00158,-359.5835,-469.40234
0.45462185,-0.24797554,9.790442,-0.026614487,-0.040106535,-0.016405523,-399.0,-278.0,-3.0,442337300.0,NoFix,12,0,0.0,0.0,0,0.0,0.0,0,-156.57799,87.34214,135.58914,981.2718,24.814812,118.80055,-367.24948,-473.1068
0.46380612,-0.25715983,9.785851,0.008385479,0.064893484,-0.016405523,-403.0,-273.0,5.0,443639700.0,NoFix,12,0,0.0,0.0,0,0.0,0.0,0,-156.539,87.34258,135.62834,981.27295,24.827286,126.036606,-357.89856,-457.89587
0.45462185,-0.26175198,9.776666,0.008385479,-0.005106449,-0.016405523,-403.0,-274.0,-2.0,444942080.0,NoFix,12,0,0.0,0.0,0,0.0,0.0,0,-156.5054,87.34184,135.66206,981.27295,24.827286,125.99181,-359.5371,-471.32782
0.44543758,-0.26175198,9.781258,-0.026614487,-0.005106449,0.018594503,-399.0,-275.0,-1.0,446244450.0,NoFix,12,0,0.0,0.0,0,0.0,0.0,0,-156.45732,87.341255,135.70366,981.27295,24.827286,118.749504,-361.4526,-469.39502
0.44084543,-0.27093625,9.785851,-0.026614487,-0.005106449,0.018594503,-403.0,-275.0,-7.0,447546850.0,NoFix,12,0,0.0,0.0,0,0.0,0.0,0,-156.40277,87.34052,135.7573,981.27295,24.827286,125.966545,-361.2684,-480.90878
0.44543758,-0.26634413,9.785851,0.008385479,-0.005106449,0.018594503,-402.0,-269.0,-2.0,448849200.0,NoFix,12,0,0.0,0.0,0,0.0,0.0,0,-156.36418,87.339935,135.79675,981.27295,24.827286,124.05529,-349.6975,-471.56952
0.459214,-0.23879129,9.785851,0.008385479,-0.005106449,0.018594503,-401.0,-272.0,4.0,450151580.0,NoFix,12,0,0.0,0.0,0,0.0,0.0,0,-156.34593,87.33986,135.81284,981.2738,24.827286,122.365524,-355.84198,-459.88727
0.459214,-0.22501485,9.781258,-0.026614487,0.029893517,-0.016405523,-397.0,-274.0,-2.0,451453980.0,NoFix,12,0,0.0,0.0,0,0.0,0.0,0,-156.31934,87.339485,135.83107,981.2738,24.827286,115.07841,-359.39597,-471.38638
0.45462185,-0.22042271,9.776666,-0.026614487,-0.005106449,-0.016405523,-404.0,-275.0,-2.0,452756350.0,NoFix,12,0,0.0,0.0,0,0.0,0.0,0,-156.29979,87.339195,135.85164,981.2738,24.827286,127.834236,-361.52383,-471.2717
0.44084543,-0.22501485,9.790442,0.008385479,-0.005106449,0.018594503,-405.0,-271.0,-1.0,454058720.0,NoFix,12,0,0.0,0.0,0,0.0,0.0,0,-156.28502,87.339485,135.8704,981.2738,24.827286,129.5688,-353.7409,-469.52197
0.44084543,-0.229607,9.790442,0.008385479,-0.005106449,-0.05140549,-399.0,-274.0,-7.0,455361120.0,NoFix,12,0,0.0,0.0,0,0.0,0.0,0,-156.26906,87.33964,135.88194,981.2738,24.827286,118.66741,-359.21112,-480.9942
0.45462185,-0.23879129,9.790442,0.008385479,-0.005106449,-0.016405523,-398.0,-276.0,-4.0,456663500.0,NoFix,12,0,0.0,0.0,0,0.0,0.0,0,-156.25058,87.33912,135.89253,981.2743,24.832108,116.92484,-363.25314,-475.13483
0.4500297,-0.25715983,9.781258,0.008385479,-0.005106449,-0.016405523,-402.0,-278.0,-1.0,457965860.0,NoFix,12,0,0.0,0.0,0,0.0,0.0,0,-156.22043,87.33905,135.91951,981.2743,24.832108,124.27678,-367.4128,-469.2266
0.43625328,-0.26175198,9.781258,0.008385479,0.029893517,0.018594503,-402.0,-276.0,-1.0,459268220.0,NoFix,12,0,0.0,0.0,0,0.0,0.0,0,-156.17805,87.339424,135.95879,981.2743,24.832108,124.22973,-363.4864,-469.31934
0.46830404,-0.23874325,9.788472,-0.061614513,-0.005106449,0.05359447,-400.0,-271.0,5.0,494432450.0,NoFix,12,0,0.0,0.0,0,0.0,0.0,0,-155.61595,87.33905,136.464,981.27234,24.853088,120.53286,-353.90158,-458.0179
0.44993955,-0.23874345,9.788481,-0.061614513,0.029893517,0.05359447,-401.0,-271.0,-4.0,495734850.0,NoFix,12,0,0.0,0.0,0,0.0,0.0,0,-155.57005,87.3389,136.5081,981.2711,24.853088,122.26392,-353.50766,-475.33746
0.4361658,-0.23874341,9.783889,-0.061614513,-0.040106535,0.018594503,-399.0,-273.0,-3.0,497037220.0,NoFix,12,0,0.0,0.0,0,0.0,0.0,0,-155.53204,87.33772,136.54083,981.2711,24.853088,118.68293,-357.4334,-473.3387
0.43616334,-0.24333322,9.779241,-0.026614487,0.029893517,0.018594503,-400.0,-273.0,-8.0,498339600.0,NoFix,12,0,0.0,0.0,0,0.0,0.0,0,-155.49275,87.33831,136.5769,981.2711,24.853088,120.45303,-357.22504,-482.95633
0.4407567,-0.24792564,9.779289,-0.026614487,-0.005106449,-0.016405523,-403.0,-276.0,4.0,499642000.0,NoFix,12,0,0.0,0.0,0,0.0,0.0,0,-155.4581,87.33802,136.6105,981.2711,24.853088,126.09743,-363.74185,-459.6822
0.44993186,-0.25251278,9.783723,-0.026614487,-0.005106449,0.018594503,-404.0,-272.0,-4.0,500944350.0,NoFix,12,0,0.0,0.0,0,0.0,0.0,0,-155.42282,87.33751,136.64839,981.2711,24.853088,127.74415,-355.54144,-475.26178
0.46370813,-0.2571055,9.779191,0.043385506,-0.040106535,-0.016405523,-405.0,-274.0,-6.0,502246720.0,NoFix,12,0,0.0,0.0,0,0.0,0.0,0,-155.41798,87.33597,136.6564,981.27124,24.854507,129.59058,-359.39865,-479.0102
0.46373898,-0.26171407,9.77525,0.008385479,-0.005106449,-0.016405523,-405.0,-278.0,-6.0,503549120.0,NoFix,12,0,0.0,0.0,0,0.0,0.0,0,-155.39351,87.33493,136.68178,981.27124,24.854507,129.68468,-367.2515,-478.82465
0.459124,-0.2571094,9.779341,0.043385506,0.029893517,0.018594503,-409.0,-276.0,-1.0,504851500.0,NoFix,12,0,0.0,0.0,0,0.0,0.0,0,-155.37648,87.33552,136.70589,981.27124,24.854507,136.96204,-363.65106,-469.25104
0.4545304,-0.24792567,9.77929,-0.026614487,0.029893517,0.018594503,-406.0,-280.0,-4.0,506153860.0,NoFix,12,0,0.0,0.0,0,0.0,0.0,0,-155.34007,87.33501,136.74234,981.27124,24.854507,131.57014,-371.2942,-474.87122
0.4453719,-0.22957315,9.779816,0.008385479,0.029893517,0.018594503,-400.0,-272.0,-2.0,507456260.0,NoFix,12,0,0.0,0.0,0,0.0,0.0,0,-155.32407,87.33597,136.75533,981.27124,24.854507,120.48806,-355.54013,-471.44986
0.4407582,-0.22956157,9.779323,0.008385479,-0.005106449,0.018594503,-401.0,-281.0,-4.0,508758620.0,NoFix,12,0,0.0,0.0,0,0.0,0.0,0,-155.31209,87.336105,136.76048,981.2704,24.854507,122.49917,-373.13977,-474.87363
0.4407696,-0.24334154,9.784167,0.043385506,-0.005106449,-0.016405523,-400.0,-275.0,-4.0,510061000.0,NoFix,12,0,0.0,0.0,0,0.0,0.0,0,-155.3044,87.33626,136.76384,981.2704,24.854507,120.53912,-361.33698,-475.16168
0.44995028,-0.2479318,9.788714,0.008385479,0.029893517,-0.016405523,-404.0,-272.0,-4.0,511363400.0,NoFix,12,0,0.0,0.0,0,0.0,0.0,0,-155.27974,87.33669,136.79182,981.2704,24.854507,127.74415,-355.54144,-475.26178
0.45912153,-0.24792562,9.78388,-0.061614513,0.029893517,-0.086405516,-402.0,-274.0,-6.0,512665760.0,NoFix,12,0,0.0,0.0,0,0.0,0.0,0,-155.23569,87.3364,136.83679,981.2704,24.854507,124.13388,-359.32806,-479.03946
0.45913506,-0.24793293,9.779576,0.008385479,0.029893517,-0.05140549,-404.0,-272.0,3.0,513968130.0,NoFix,12,0,0.0,0.0,0,0.0,0.0,0,-155.21443,87.3364,136.8613,981.2704,24.854507,127.81246,-355.86615,-461.78345
0.45453,-0.24792545,9.788465,0.008385479,0.029893517,-0.016405523,-398.0,-277.0,-1.0,515270530.0,NoFix,12,0,0.0,0.0,0,0.0,0.0,0,-155.19144,87.336555,136.87613,981.27124,24.863014,116.977646,-365.3555,-469.312
0.45453006,-0.25251672,9.7838745,0.043385506,-0.005106449,-0.016405523,-403.0,-273.0,2.0,516572900.0,NoFix,12,0,0.0,0.0,0,0.0,0.0,0,-155.18297,87.336555,136.88542,981.27124,24.863014,126.007324,-357.75943,-463.6723
0.45453906,-0.2617043,9.774885,-0.026614487,-0.005106449,0.018594503,-398.0,-273.0,-1.0,517875300.0,NoFix,12,0,0.0,0.0,0,0.0,0.0,0,-155.14514,87.33552,136.9165,981.27124,24.863014,116.88355,-357.50266,-469.49753
0.45453635,-0.26170275,9.774827,0.008385479,-0.005106449,0.05359447,-405.0,-275.0,-3.0,519177660.0,NoFix,12,0,0.0,0.0,0,0.0,0.0,0,-155.11842,87.334496,136.94434,981.27124,24.863014,129.64339,-361.50098,-473.1874
0.454547,-0.26170886,9.775056,0.008385479,-0.005106449,-0.016405523,-402.0,-272.0,1.0,520480030.0,NoFix,12,0,0.0,0.0,0,0.0,0.0,0,-155.0932,87.333466,136.9692,981.27124,24.863014,124.15514,-355.72632,-465.65393
0.4453622,-0.25252497,9.779603,0.008385479,0.029893517,0.018594503,-407.0,-278.0,-1.0,521782430.0,NoFix,12,0,0.0,0.0,0,0.0,0.0,0,-155.0651,87.33405,137.00027,981.2717,24.863014,133.37128,-367.53046,-469.1778
0.43617374,-0.23415643,9.784066,0.043385506,-0.005106449,-0.016405523,-399.0,-275.0,1.0,523084800.0,NoFix,12,0,0.0,0.0,0,0.0,0.0,0,-155.06314,87.33493,136.99666,981.2717,24.863014,118.76902,-361.54538,-465.54407
0.43617412,-0.22956534,9.779483,-0.026614487,-0.005106449,-0.05140549,-400.0,-270.0,-1.0,524387230.0,NoFix,12,0,0.0,0.0,0,0.0,0.0,0,-155.04112,87.33508,137.01788,981.2717,24.863014,120.45078,-351.6601,-469.61716
0.44994354,-0.22956304,9.7839775,0.008385479,-0.005106449,0.018594503,-402.0,-275.0,1.0,525689570.0,NoFix,12,0,0.0,0.0,0,0.0,0.0,0,-155.03326,87.33493,137.02333,981.2717,24.863014,124.22572,-361.61594,-465.51477
0.4453502,-0.2341532,9.788522,-0.026614487,-0.040106535,0.018594503,-406.0,-272.0,-2.0,526992000.0,NoFix,12,0,0.0,0.0,0,0.0,0.0,0,-155.01534,87.33391,137.04623,981.2717,24.863014,131.40147,-355.68127,-471.39133
0.44994158,-0.247927,9.783934,-0.026614487,-0.005106449,-0.016405523,-399.0,-271.0,-4.0,528294300.0,NoFix,12,0,0.0,0.0,0,0.0,0.0,0,-154.98598,87.33317,137.07213,981.2725,24.872086,118.62612,-353.4606,-475.35696
0.45453495,-0.25711066,9.783979,0.008385479,0.029893517,0.018594503,-402.0,-273.0,1.0,529596700.0,NoFix,12,0,0.0,0.0,0,0.0,0.0,0,-154.95825,87.33317,137.09868,981.2725,24.872086,124.17867,-357.6895,-465.60754
0.44535047,-0.25710952,9.7885275,0.043385506,-0.005106449,0.018594503,-402.0,-276.0,-4.0,530899070.0,NoFix,12,0,0.0,0.0,0,0.0,0.0,0,-154.94518,87.33317,137.10909,981.2725,24.872086,124.20045,-363.34723,-475.09576
0.44075954,-0.24792723,9.779352,0.008385479,-0.005106449,-0.05140549,-400.0,-269.0,-2.0,532201440.0,NoFix,12,0,0.0,0.0,0,0.0,0.0,0,-154.92615,87.333466,137.12825,981.2725,24.872086,120.41749,-349.65048,-471.58902
0.445353,-0.24792847,9.77481,-0.026614487,-0.005106449,-0.016405523,-403.0,-272.0,1.0,533503840.0,NoFix,12,0,0.0,0.0,0,0.0,0.0,0,-154.89589,87.33258,137.15953,981.27295,24.872086,125.97405,-355.74985,-465.64417
0.45452854,-0.25710705,9.783842,-0.026614487,-0.005106449,0.018594503,-405.0,-273.0,1.0,534806200.0,NoFix,12,0,0.0,0.0,0,0.0,0.0,0,-154.8625,87.33156,137.19565,981.27295,24.872086,129.63536,-357.7601,-465.57828
0.44993263,-0.25251323,9.78374,-0.026614487,-0.005106449,0.05359447,-401.0,-274.0,-3.0,536108600.0,NoFix,12,0,0.0,0.0,0,0.0,0.0,0,-154.83015,87.33097,137.22444,981.27295,24.872086,122.34425,-359.4437,-473.27283
0.4499258,-0.24332723,9.783591,0.043385506,-0.005106449,0.05359447,-403.0,-274.0,-3.0,537410940.0,NoFix,12,0,0.0,0.0,0,0.0,0.0,0,-154.8264,87.33097,137.22731,981.27295,24.872086,125.982056,-359.49072,-473.2533
0.4453307,-0.23414294,9.778911,0.008385479,0.029893517,0.088594496,-405.0,-270.0,4.0,538713340.0,NoFix,12,0,0.0,0.0,0,0.0,0.0,0,-154.80931,87.33199,137.24802,981.27295,24.872086,129.59407,-352.00964,-459.94098
0.44073787,-0.22955097,9.783463,0.008385479,0.029893517,0.018594503,-398.0,-275.0,2.0,540015740.0,NoFix,12,0,0.0,0.0,0,0.0,0.0,0,-154.79483,87.33303,137.2546,981.27295,24.872086,116.95988,-361.56824,-463.62833
0.43614748,-0.22496027,9.783477,-0.026614487,0.029893517,0.018594503,-402.0,-271.0,5.0,541318100.0,NoFix,12,0,0.0,0.0,0,0.0,0.0,0,-154.77025,87.33391,137.27902,981.27295,24.872086,124.17066,-353.9486,-457.9984
0.4361501,-0.23414373,9.783536,0.008385479,-0.005106449,0.018594503,-403.0,-275.0,3.0,542620500.0,NoFix,12,0,0.0,0.0,0,0.0,0.0,0,-154.75752,87.334206,137.2907,981.27295,24.872086,126.06414,-361.73224,-461.65405
0.44992763,-0.2479193,9.779039,-0.026614487,-0.005106449,-0.016405523,-404.0,-275.0,1.0,543922900.0,NoFix,12,0,0.0,0.0,0,0.0,0.0,0,-154.72957,87.333244,137.31934,981.27295,24.872086,127.86352,-361.663,-465.49527
0.4591136,-0.2571036,9.7837105,0.008385479,-0.005106449,-0.016405523,-403.0,-272.0,-1.0,545225300.0,NoFix,12,0,0.0,0.0,0,0.0,0.0,0,-154.71072,87.33251,137.33966,981.27295,24.872086,125.95454,-355.65707,-469.49512
0.45911485,-0.25710428,9.783737,0.008385479,-0.005106449,-0.016405523,-404.0,-277.0,-3.0,546527600.0,NoFix,12,0,0.0,0.0,0,0.0,0.0,0,-154.69193,87.33156,137.35843,981.27295,24.872086,127.87154,-365.40387,-473.1044
0.45452067,-0.25710258,9.783672,0.008385479,-0.005106449,0.018594503,-401.0,-270.0,-2.0,547830000.0,NoFix,12,0,0.0,0.0,0,0.0,0.0,0,-154.67133,87.330894,137.37814,981.2734,24.876343,122.25992,-351.63724,-471.53287
0.4499317,-0.24792156,9.779128,0.0003643632,0.023332715,0.01093775,-403.0,-272.0,-1.0,549132400.0,NoFix,12,0,0.0,0.0,0,0.0,0.0,0,-154.64813,87.33134,137.40268,981.2734,24.876343,125.95454,-355.65707,-469.49512
0.44534525,-0.24333297,9.783822,-0.034271,0.023332715,0.010573149,-402.0,-274.0,1.0,550434750.0,NoFix,12,0,0.0,0.0,0,0.0,0.0,0,-154.6149,87.33134,137.43427,981.2734,24.876343,124.202194,-359.65274,-465.56116
0.40404743,-0.22957242,9.738462,0.14072901,0.1633327,0.010573149,-400.0,-277.0,-2.0,551737150.0,NoFix,12,0,0.0,0.0,0,0.0,0.0,0,-154.61412,87.33707,137.4295,981.2734,24.876343,120.60568,-365.35617,-471.21796
1.1019475,0.06428027,9.7338705,-0.62927103,-3.0916674,-6.149427,-399.0,-278.0,-7.0,553039550.0,NoFix,12,0,0.0,0.0,0,0.0,0.0,0,-155.33362,87.255615,136.8113,981.2734,24.876343,118.76151,-367.06396,-480.8087
1.4600805,0.036731586,9.545621,3.3607292,4.783333,-35.86443,-404.0,-279.0,-2.0,554341900.0,NoFix,12,0,0.0,0.0,0,0.0,0.0,0,-156.83022,87.34538,135.99722,981.26953,24.876343,127.92834,-369.37668,-471.08615
0.32599285,-0.41782182,9.844066,-1.7142711,-8.621668,-17.139427,-405.0,-272.0,-5.0,555644300.0,NoFix,12,0,0.0,0.0,0,0.0,0.0,0,-157.62314,87.16758,135.51186,981.26953,24.876343,129.5533,-355.51862,-477.17746
-0.69330865,-0.5831139,9.880796,-0.20927101,-6.171667,5.2605734,-398.0,-269.0,-7.0,556946700.0,NoFix,12,0,0.0,0.0,0,0.0,0.0,0,-157.78458,87.08194,135.23405,981.26953,24.876343,116.73089,-349.37152,-481.2359
-1.3866173,-0.8769666,9.89457,1.680729,-8.026668,12.540573,-405.0,-277.0,-4.0,558249000.0,NoFix,12,0,0.0,0.0,0,0.0,0.0,0,-159.0541,86.94078,133.71086,981.26953,24.876343,129.68066,-365.381,-475.0201
-0.36272442,-0.6382113,10.183832,4.305729,3.0333328,49.395573,-388.0,-276.0,-1.0,559551400.0,NoFix,12,0,0.0,0.0,0,0.0,0.0,0,-158.68439,87.05509,133.13025,981.26953,24.876343,98.76511,-363.15707,-469.45596
1.1937766,-0.39945602,10.064455,9.4157295,3.3133326,37.56557,-401.0,-276.0,3.0,560853800.0,NoFix,12,0,0.0,0.0,0,0.0,0.0,0,-160.63405,87.16309,130.47249,981.2703,24.884567,122.44986,-363.64844,-461.6272
1.3544773,-0.3902731,11.3454685,20.580729,11.818333,21.430573,-399.0,-282.0,7.0,562156160.0,NoFix,12,0,0.0,0.0,0,0.0,0.0,0,-166.23828,87.49954,124.47277,981.2703,24.884567,118.99224,-375.56616,-453.6665
0.6749429,-0.3030356,12.80555,53.830727,46.958332,15.690574,-396.0,-285.0,8.0,563458560.0,NoFix,12,0,0.0,0.0,0,0.0,0.0,0,169.72607,88.63326,100.15586,981.2703,24.884567,113.61587,-381.43158,-451.63116
-0.51883364,-0.39486456,12.727495,70.45573,58.333332,18.805573,-403.0,-290.0,11.0,564760960.0,NoFix,12,0,0.0,0.0,0,0.0,0.0,0,113.64547,88.7262,43.243267,981.2703,24.884567,126.49508,-391.55148,-445.55453
-0.6565771,-0.1698836,11.946949,60.44573,52.908333,19.820574,-405.0,-292.0,21.0,566063360.0,NoFix,12,0,0.0,0.0,0,0.0,0.0,0,84.09801,87.50597,13.180119,981.2703,24.884567,130.27753,-395.9888,-426.1875
-0.30762705,-0.07346317,11.363834,61.565727,47.343334,8.305573,-406.0,-297.0,25.0,567365700.0,NoFix,12,0,0.0,0.0,0,0.0,0.0,0,73.26703,86.090034,2.2091153,981.27203,24.884567,132.2531,-406.0139,-418.24396
-0.29844415,0.14692634,11.203134,57.82073,36.423332,4.000573,-409.0,-300.0,34.0,568668100.0,NoFix,12,0,0.0,0.0,0,0.0,0.0,0,69.56124,84.79854,-1.5534817,981.27203,24.884567,137.86821,-412.39154,-400.74622
-0.4545534,0.49128497,11.336286,58.940727,26.378334,5.8205733,-404.0,-302.0,37.0,569970500.0,NoFix,12,0,0.0,0.0,0,0.0,0.0,0,68.91577,83.5605,-2.2995646,981.27203,24.884567,128.85002,-416.3395,-394.92584
-0.70708305,0.60147977,11.533718,66.18573,24.733334,7.6755733,-406.0,-309.0,39.0,571272800.0,NoFix,12,0,0.0,0.0,0,0.0,0.0,0,69.05928,82.21464,-2.2929306,981.27203,24.884567,132.67201,-430.22177,-390.7307
-0.85860085,0.7759548,11.423524,72.52073,25.538334,5.890573,-410.0,-314.0,51.0,572575200.0,NoFix,12,0,0.0,0.0,0,0.0,0.0,0,69.31039,80.75754,-2.143271,981.27203,24.884567,140.18234,-440.68854,-367.35403
-0.68412584,1.0514417,10.583288,72.415726,26.378334,-0.7244269,-414.0,-316.0,61.0,573877600.0,NoFix,12,0,0.0,0.0,0,0.0,0.0,0,69.34466,79.30071,-2.0856109,981.2721,24.885696,147.60262,-445.1729,-347.9675
-0.4821021,1.0514417,9.490523,68.88073,27.358334,-9.999427,-415.0,-315.0,68.0,575179970.0,NoFix,12,0,0.0,0.0,0,0.0,0.0,0,69.038086,77.90938,-2.1986108,981.2721,24.885696,149.4663,-443.5579,-334.52582
-0.757589,1.2718312,9.233403,66.04573,23.123333,-7.8994265,-416.0,-318.0,65.0,576482370.0,NoFix,12,0,0.0,0.0,0,0.0,0.0,0,69.01952,76.59527,-2.059894,981.2721,24.885696,151.3265,-449.33188,-340.15332
-0.97797847,2.0248287,9.779785,64.99573,15.1433325,5.2605734,-414.0,-328.0,75.0,577784770.0,NoFix,12,0,0.0,0.0,0,0.0,0.0,0,69.75256,75.339455,-1.4125912,981.2721,24.885696,148.02153,-469.3808,-320.45428
-0.8631923,2.612534,9.811926,71.43573,13.568333,10.930573,-414.0,-324.0,82.0,579087100.0,NoFix,12,0,0.0,0.0,0,0.0,0.0,0,70.75372,73.96832,-0.5942364,981.2721,24.885696,147.99576,-461.85263,-307.1615
-0.4086389,2.5941684,8.847721,70.31573,9.193333,15.970573,-414.0,-331.0,85.0,580389500.0,NoFix,12,0,0.0,0.0,0,0.0,0.0,0,71.98128,72.64487,0.3605494,981.2674,24.885696,148.1897,-475.73425,-301.0604
-0.004591448,2.3967361,7.8697424,59.29073,7.338333,6.0305734,-414.0,-329.0,90.0,581691900.0,NoFix,12,0,0.0,0.0,0,0.0,0.0,0,72.83008,71.535835,1.1202139,981.2674,24.885696,148.19145,-472.03976,-291.5258
-0.15610924,2.653857,7.67231,44.52073,0.5483327,1.1655731,-416.0,-329.0,96.0,582994300.0,NoFix,12,0,0.0,0.0,0,0.0,0.0,0,73.61295,70.72259,1.9167687,981.2674,24.885696,151.88782,-472.36508,-279.95343
-0.40404743,3.0716789,8.030443,39.34073,-9.776668,5.960573,-406.0,-333.0,97.0,584296640.0,NoFix,12,0,0.0,0.0,0,0.0,0.0,0,74.84665,70.04528,3.0860574,981.2674,24.885696,133.80266,-480.02908,-277.94003
-0.7116745,3.3379831,8.3885765,38.815727,-15.4816675,9.950573,-406.0,-335.0,97.0,585599040.0,NoFix,12,0,0.0,0.0,0,0.0,0.0,0,76.31671,69.39272,4.437803,981.2674,24.885696,133.8497,-483.9555,-277.84726
-0.9228811,3.3884888,8.507954,40.98573,-17.476667,15.305573,-402.0,-337.0,106.0,586901440.0,NoFix,12,0,0.0,0.0,0,0.0,0.0,0,77.89092,68.69845,5.798773,981.26794,24.89193,126.708984,-488.20526,-260.46423
-0.89992386,3.3242087,8.30593,39.30573,-17.406666,15.865573,-406.0,-336.0,114.0,588203800.0,NoFix,12,0,0.0,0.0,0,0.0,0.0,0,79.35746,68.02581,7.0505605,981.26794,24.89193,134.03914,-486.70724,-245.06781
-0.6887173,3.3150258,7.9477973,32.16573,-15.831668,13.135573,-400.0,-335.0,109.0,589506200.0,NoFix,12,0,0.0,0.0,0,0.0,0.0,0,80.580154,67.47108,8.094104,981.26794,24.89193,123.0534,-484.37094,-254.80011
-0.56474817,3.2553368,7.6677184,20.860727,-11.001668,6.3805733,-402.0,-336.0,110.0,590808600.0,NoFix,12,0,0.0,0.0,0,0.0,0.0,0,81.33822,67.10875,8.781096,981.26794,24.89193,126.724495,-486.42758,-252.80875
-0.66576,3.4022632,7.8513765,11.725729,-8.691668,7.3605733,-401.0,-343.0,114.0,592110900.0,NoFix,12,0,0.0,0.0,0,0.0,0.0,0,81.92333,66.90772,9.260087,981.26794,24.89193,125.10929,-500.3321,-244.79193
-0.6565771,3.7512133,8.475814,10.430729,-5.296667,10.160573,-395.0,-340.0,113.0,593413300.0,NoFix,12,0,0.0,0.0,0,0.0,0.0,0,82.39974,66.71939,9.557237,981.2582,24.89193,114.11555,-494.25494,-246.91512
-0.5601567,4.159852,8.87527,19.600729,1.2833327,10.405573,-395.0,-341.0,115.0,594715700.0,NoFix,12,0,0.0,0.0,0,0.0,0.0,0,82.652275,66.33597,9.605647,981.2582,24.89193,114.15859,-496.3109,-243.01778
-0.34895006,4.1368947,8.310521,29.750729,9.578333,7.290573,-395.0,-338.0,117.0,596018100.0,NoFix,12,0,0.0,0.0,0,0.0,0.0,0,82.56499,65.73652,9.346881,981.2582,24.89193,114.10754,-490.51404,-239.30597
-0.087237515,3.6226528,7.25908,26.355728,14.968332,-0.40942687,-400.0,-347.0,117.0,597320450.0,NoFix,12,0,0.0,0.0,0,0.0,0.0,0,82.12484,65.1909,8.860015,981.2582,24.89193,123.41377,-508.30048,-238.83972
-0.890741,4.086389,8.700794,-0.48927101,-0.46666718,-3.5594268,-405.0,-339.0,128.0,632484740.0,NoFix,12,0,0.0,0.0,0,0.0,0.0,0,78.55045,63.029385,5.1264405,981.2547,24.921707,132.42743,-493.2227,-217.98178
-1.0330758,4.187401,8.852312,-0.48927101,2.4733326,-4.5744267,-399.0,-342.0,126.0,633787140.0,NoFix,12,0,0.0,0.0,0,0.0,0.0,0,78.35679,63.035007,4.9982123,981.2547,24.921707,121.56509,-498.8784,-221.75214
-1.0881732,4.228724,8.866087,2.6957288,4.2583327,-2.929427,-406.0,-346.0,134.0,635089540.0,NoFix,12,0,0.0,0.0,0,0.0,0.0,0,78.15141,62.97304,4.8302875,981.2547,24.921707,134.46957,-507.26697,-206.09448
-1.0698075,4.1919923,8.68702,4.585729,3.9433327,0.045573115,-409.0,-342.0,126.0,636391900.0,NoFix,12,0,0.0,0.0,0,0.0,0.0,0,78.030754,62.87587,4.7002544,981.2547,24.921707,139.7541,-499.11362,-221.65454
-0.91828966,4.1139374,8.503363,3.325729,0.9333327,1.6205732,-403.0,-344.0,133.0,637694300.0,NoFix,12,0,0.0,0.0,0,0.0,0.0,0,78.049904,62.814957,4.6805553,981.2547,24.921707,128.95605,-503.2236,-208.14201
-0.79891205,4.035883,8.49418,-0.034271,-2.2516673,0.29057312,-402.0,-340.0,136.0,638996700.0,NoFix,12,0,0.0,0.0,0,0.0,0.0,0,78.14058,62.83227,4.7682247,981.2564,24.921707,127.072334,-495.4864,-202.56088
-0.89992386,4.132303,8.774258,-2.2392712,-3.6866672,-1.1794269,-404.0,-344.0,130.0,640299100.0,NoFix,12,0,0.0,0.0,0,0.0,0.0,0,78.232414,62.896572,4.891819,981.2564,24.921707,130.74567,-503.10797,-213.90868
-1.023893,4.2746387,8.990056,0.66572905,-1.3766673,-1.2844269,-401.0,-343.0,137.0,641601400.0,NoFix,12,0,0.0,0.0,0,0.0,0.0,0,78.25372,62.89578,4.935415,981.2564,24.921707,125.33376,-501.3989,-200.50603
-1.0835818,4.2333155,8.879861,3.5707293,1.6683327,-0.1294269,-400.0,-347.0,134.0,642903800.0,NoFix,12,0,0.0,0.0,0,0.0,0.0,0,78.203575,62.82844,4.8721128,981.2564,24.921707,123.57968,-509.089,-206.10666
-1.0560331,4.201175,8.668654,4.340729,2.3683326,2.320573,-400.0,-344.0,126.0,644206200.0,NoFix,12,0,0.0,0.0,0,0.0,0.0,0,78.18216,62.742428,4.7900977,981.2559,24.921707,123.43104,-502.82834,-221.64961
-0.9091068,4.141486,8.443674,4.305729,2.3333328,4.8405733,-405.0,-345.0,133.0,645508540.0,NoFix,12,0,0.0,0.0,0,0.0,0.0,0,78.219376,62.656948,4.7254343,981.2559,24.921707,132.61739,-505.2339,-208.07611
-0.52801657,4.1001635,8.475814,0.66572905,1.0033327,3.3355732,-407.0,-342.0,133.0,646810940.0,NoFix,12,0,0.0,0.0,0,0.0,0.0,0,78.275795,62.648937,4.713111,981.2559,24.921707,136.18462,-499.3913,-208.19574
-0.5050593,4.210358,8.673245,-0.314271,-1.0266674,-1.8444269,-408.0,-344.0,135.0,648113340.0,NoFix,12,0,0.0,0.0,0,0.0,0.0,0,78.30191,62.66678,4.7776284,981.2559,24.921707,138.07007,-503.434,-204.24228
-0.890741,4.2654557,8.833946,0.28072894,-6.7316675,1.2705731,-399.0,-352.0,131.0,649415740.0,NoFix,12,0,0.0,0.0,0,0.0,0.0,0,78.56935,62.693546,5.037011,981.2559,24.921707,121.84912,-518.74243,-211.66093
-0.92747253,4.306779,8.976281,2.1357288,-5.121667,1.8655732,-407.0,-350.0,132.0,650718100.0,NoFix,12,0,0.0,0.0,0,0.0,0.0,0,78.800354,62.679768,5.2570486,981.2568,24.931633,136.36305,-515.05054,-209.75015
-0.8264607,4.2746387,8.820172,4.6557293,1.3533328,-2.2294269,-403.0,-344.0,133.0,652020500.0,NoFix,12,0,0.0,0.0,0,0.0,0.0,0,78.7442,62.59428,5.2366414,981.2568,24.931633,128.95605,-503.2236,-208.14201
-0.79891205,4.1552606,8.484997,4.340729,2.4383328,-3.629427,-399.0,-341.0,135.0,653322900.0,NoFix,12,0,0.0,0.0,0,0.0,0.0,0,78.62145,62.50975,5.165383,981.2568,24.931633,121.629395,-497.33264,-204.46925
-0.83564365,4.1552606,8.374802,1.225729,0.96833277,-3.8044267,-406.0,-349.0,134.0,654625200.0,NoFix,12,0,0.0,0.0,0,0.0,0.0,0,78.523766,62.48717,5.133515,981.2568,24.931633,134.54015,-513.1566,-205.95534
-0.9228811,4.2057667,8.466631,0.455729,0.37333274,-2.7894268,-400.0,-341.0,132.0,655927600.0,NoFix,12,0,0.0,0.0,0,0.0,0.0,0,78.455986,62.480667,5.108547,981.2568,24.931633,123.41902,-497.21704,-210.23592
-0.9228811,4.24709,8.631924,-0.41927102,-1.1316674,-0.93442684,-406.0,-341.0,135.0,657230000.0,NoFix,12,0,0.0,0.0,0,0.0,0.0,0,78.47169,62.497486,5.1467967,981.2564,24.931633,134.3617,-497.4973,-204.40094
-0.9228811,4.2838216,8.714568,0.49072897,-1.3766673,-0.26942688,-401.0,-344.0,129.0,658532400.0,NoFix,12,0,0.0,0.0,0,0.0,0.0,0,78.51579,62.498363,5.193901,981.2564,24.931633,125.27921,-502.99103,-215.86343
-1.0147101,4.219541,8.627332,1.5057291,-0.92166734,0.32557315,-402.0,-343.0,130.0,659834750.0,NoFix,12,0,0.0,0.0,0,0.0,0.0,0,78.5545,62.478672,5.226141,981.2564,24.931633,127.08435,-501.09772,-213.97458
-1.0560331,4.178218,8.608966,0.38572896,1.6333327,-0.5844268,-401.0,-342.0,135.0,661137150.0,NoFix,12,0,0.0,0.0,0,0.0,0.0,0,78.47311,62.470943,5.141769,981.2564,24.931633,125.29072,-499.3429,-204.40337
-1.0101186,4.24709,8.677837,-0.06927103,1.3183327,-0.6544269,-401.0,-346.0,134.0,662439550.0,NoFix,12,0,0.0,0.0,0,0.0,0.0,0,78.40313,62.472145,5.0688353,981.2564,24.931633,125.37506,-507.14935,-206.14328
-0.9412469,4.3251443,8.728343,0.0007289648,-1.6216674,0.6055731,-406.0,-340.0,135.0,663741900.0,NoFix,12,0,0.0,0.0,0,0.0,0.0,0,78.468636,62.482143,5.130687,981.25745,24.942696,134.33818,-495.53412,-204.44733
-0.9045153,4.3113704,8.68702,0.77072895,-0.7116673,0.8505731,-400.0,-341.0,135.0,665044300.0,NoFix,12,0,0.0,0.0,0,0.0,0.0,0,78.51401,62.47427,5.154327,981.25745,24.942696,123.448296,-497.35617,-204.4595
-4.2333155,4.701643,8.163595,14.805729,161.16333,6.9055734,-433.0,-344.0,183.0,700208640.0,NoFix,12,0,0.0,0.0,0,0.0,0.0,0,48.036674,50.38119,-30.246439,981.2598,24.959137,184.01108,-506.2485,-111.57554
-3.820085,5.5005555,-6.653009,-23.169271,130.11833,2.1455731,-282.0,-346.0,326.0,769234940.0,NoFix,12,0,0.0,0.0,0,0.0,0.0,0,58.32678,-46.40745,-118.59554,981.2548,24.996277,-89.20044,-513.25555,162.38634
-3.3288002,5.4821897,-6.9055386,-24.219273,130.22333,0.36057314,-271.0,-347.0,317.0,770537340.0,NoFix,12,0,0.0,0.0,0,0.0,0.0,0,60.853207,-47.266506,-122.034256,981.2548,24.996277,-109.27267,-514.5425,144.9961
-2.7732346,5.4913726,-7.158068,-26.004272,113.03834,0.99057317,-278.0,-350.0,315.0,771839740.0,NoFix,12,0,0.0,0.0,0,0.0,0.0,0,63.206764,-47.848972,-125.18619,981.2548,24.996277,-96.48931,-520.5041,141.3526
-2.405919,5.574018,-7.2820373,-29.399273,91.793335,1.235573,-276.0,-351.0,310.0,773142100.0,NoFix,12,0,0.0,0.0,0,0.0,0.0,0,65.25674,-48.11776,-127.90015,981.2548,24.996277,-100.15238,-522.1883,131.7521
-2.1442065,5.670439,-7.03869,-31.569271,74.78333,0.81557316,-275.0,-353.0,309.0,774444500.0,NoFix,12,0,0.0,0.0,0,0.0,0.0,0,67.01084,-48.151424,-130.21812,981.2548,24.996277,-101.934,-526.0448,129.90964
-1.9697313,5.7806334,-6.6576004,-33.564274,72.05334,-1.5294268,-274.0,-357.0,302.0,775746900.0,NoFix,12,0,0.0,0.0,0,0.0,0.0,0,68.68322,-48.07413,-132.49048,981.2541,24.996277,-103.72711,-533.54944,116.60709
-2.1671636,5.858688,-6.6300516,-31.884272,79.57833,-2.159427,-270.0,-357.0,296.0,777049300.0,NoFix,12,0,0.0,0.0,0,0.0,0.0,0,70.45486,-48.027134,-134.9232,981.2541,24.996277,-111.06127,-533.17706,105.01521
-2.139615,5.900011,-6.8137093,-31.499271,78.24834,0.32557315,-268.0,-352.0,296.0,778351600.0,NoFix,12,0,0.0,0.0,0,0.0,0.0,0,72.2297,-47.93271,-137.29764,981.2541,24.996277,-114.8167,-523.31396,104.76378
-1.7309761,6.0102057,-6.790752,-31.114271,63.618332,1.1655731,-260.0,-356.0,284.0,779654000.0,NoFix,12,0,0.0,0.0,0,0.0,0.0,0,73.72439,-47.71896,-139.26953,981.2541,24.996277,-129.39093,-530.42206,81.76555
-1.5289522,6.1066265,-6.5198565,-28.349272,34.148335,-1.1444268,-263.0,-357.0,287.0,780956400.0,NoFix,12,0,0.0,0.0,0,0.0,0.0,0,74.55642,-47.369473,-140.40916,981.2541,24.996277,-123.881424,-532.5949,87.61763
-1.6299641,6.281101,-5.867871,-22.924273,4.7133327,-1.8444269,-265.0,-359.0,283.0,782258800.0,NoFix,12,0,0.0,0.0,0,0.0,0.0,0,74.74398,-46.944275,-140.70326,981.2553,25.009323,-120.23561,-536.3829,80.028015
-1.8136221,6.414253,-5.6061583,-9.554271,-1.1316674,1.5855732,-267.0,-357.0,282.0,783561200.0,NoFix,12,0,0.0,0.0,0,0.0,0.0,0,74.79946,-46.72487,-140.73505,981.2553,25.009323,-116.65462,-532.45715,78.0293
-1.7217932,6.3132415,-6.464759,0.980729,-4.9816675,4.7355733,-258.0,-358.0,282.0,784863550.0,NoFix,12,0,0.0,0.0,0,0.0,0.0,0,74.787254,-46.7063,-140.57845,981.2553,25.009323,-133.0012,-534.2086,77.987854
-1.4600805,6.0790777,-7.663127,-3.4292712,-22.551666,5.750573,-261.0,-355.0,280.0,786165950.0,NoFix,12,0,0.0,0.0,0,0.0,0.0,0,74.48747,-46.553562,-139.99782,981.2553,25.009323,-127.63459,-528.29675,74.02702
-1.3361114,5.968883,-8.159003,-20.999271,-46.001667,3.7555733,-264.0,-352.0,285.0,787468350.0,NoFix,12,0,0.0,0.0,0,0.0,0.0,0,73.81036,-45.969704,-138.93901,981.2553,25.009323,-122.19965,-522.70966,83.544525
-1.4049832,6.111218,-7.621804,-36.08427,-67.63167,-1.5644269,-263.0,-356.0,281.0,788770750.0,NoFix,12,0,0.0,0.0,0,0.0,0.0,0,72.749855,-44.971527,-137.46948,981.2557,25.009323,-123.9635,-530.35345,76.0184
-1.6161897,6.3545647,-6.5474052,-40.17927,-92.55167,-4.959427,-268.0,-354.0,278.0,790073100.0,NoFix,12,0,0.0,0.0,0,0.0,0.0,0,71.272804,-43.704643,-135.47055,981.2557,25.009323,-114.94533,-526.40546,70.19801
-2.0431945,6.59332,-5.67503,-38.044273,-118.80167,-4.329427,-269.0,-359.0,277.0,791375500.0,NoFix,12,0,0.0,0.0,0,0.0,0.0,0,69.45078,-42.243164,-132.90283,981.2557,25.009323,-113.018555,-536.19867,68.51421
-2.4288762,6.685149,-5.4913726,-30.344273,-134.44667,0.46557313,-270.0,-364.0,276.0,792677900.0,NoFix,12,0,0.0,0.0,0,0.0,0.0,0,67.55319,-40.746674,-130.01468,981.2557,25.009323,-111.09179,-545.9919,66.830414
-2.4288762,6.5979114,-5.5281034,-28.419271,-140.15167,-1.5644269,-271.0,-359.0,275.0,793980300.0,NoFix,12,0,0.0,0.0,0,0.0,0.0,0,65.6732,-39.18191,-127.112175,981.2557,25.009323,-109.40027,-536.15295,64.682785
-2.148798,6.450985,-5.188337,-29.294271,-167.13667,-10.419427,-278.0,-356.0,280.0,795282600.0,NoFix,12,0,0.0,0.0,0,0.0,0.0,0,63.443302,-37.30844,-123.78451,981.2562,25.015556,-96.689735,-530.66,74.23932
-2.34623,6.496899,-4.1368947,-28.874271,-213.23167,-18.224426,-287.0,-357.0,279.0,796585000.0,NoFix,12,0,0.0,0.0,0,0.0,0.0,0,60.721123,-34.89514,-119.702484,981.2562,25.015556,-80.30586,-532.78845,72.44807
-3.0946362,6.6300516,-3.287477,-14.034271,-231.39668,-20.009426,-296.0,-364.0,277.0,797887400.0,NoFix,12,0,0.0,0.0,0,0.0,0.0,0,57.91392,-32.420296,-115.33558,981.2562,25.015556,-63.79059,-546.6499,69.009636
-3.737439,6.5106735,-3.3104343,-1.924271,-236.54167,-25.049427,-298.0,-359.0,281.0,799189800.0,NoFix,12,0,0.0,0.0,0,0.0,0.0,0,55.20409,-29.867643,-110.99236,981.2562,25.015556,-60.231373,-537.0664,76.49913
-4.5271683,6.30865,-3.544598,6.230729,-244.66168,-26.134426,-305.0,-364.0,282.0,800492160.0,NoFix,12,0,0.0,0.0,0,0.0,0.0,0,52.627777,-27.198702,-106.64547,981.2562,25.015556,-47.371677,-547.09357,78.72484
-5.518921,6.1892724,-3.787945,7.4557295,-227.65167,-23.719427,-305.0,-363.0,285.0,801794560.0,NoFix,12,0,0.0,0.0,0,0.0,0.0,0,50.469044,-24.608936,-102.77486,981.2533,25.015556,-47.365925,-545.2694,84.45488
-6.386705,6.2627354,-3.9899685,3.535729,-194.61168,-19.974426,-312.0,-365.0,285.0,803096960.0,NoFix,12,0,0.0,0.0,0,0.0,0.0,0,48.81874,-22.26708,-99.64967,981.2533,25.015556,-34.586563,-549.36053,84.61596
-6.8733983,6.3453817,-4.228724,-7.349271,-177.60167,-8.704427,-317.0,-364.0,285.0,804399360.0,NoFix,12,0,0.0,0.0,0,0.0,0.0,0,47.686478,-19.932663,-97.04595,981.2533,25.015556,-25.51558,-547.51495,84.61838
-6.781569,6.2627354,-4.045066,-16.204271,-193.42168,7.9905734,-324.0,-360.0,284.0,805701700.0,NoFix,12,0,0.0,0.0,0,0.0,0.0,0,46.974148,-17.242188,-94.415665,981.2533,25.015556,-12.887122,-539.78046,82.57568
-6.542814,6.299467,-2.9155695,-16.274271,-200.07167,15.655573,-325.0,-365.0,282.0,807004100.0,NoFix,12,0,0.0,0.0,0,0.0,0.0,0,46.53045,-14.421175,-91.7642,981.2533,25.015556,-10.970118,-549.5273,78.966415
-6.432619,6.5703626,-1.7493418,-8.924271,-171.79167,19.120573,-326.0,-368.0,282.0,808306500.0,NoFix,12,0,0.0,0.0,0,0.0,0.0,0,46.360455,-12.033157,-89.462654,981.2534,25.016693,-9.080641,-555.4404,79.115326
-6.290284,6.694332,-1.5427266,-6.894271,-135.74167,14.605574,-322.0,-362.0,279.0,809608900.0,NoFix,12,0,0.0,0.0,0,0.0,0.0,0,46.292755,-10.147037,-87.66524,981.2534,25.016693,-16.526672,-543.42786,73.02156
-6.0653033,6.565771,-1.8273964,-13.3342705,-136.02167,7.8855734,-334.0,-366.0,278.0,810911300.0,NoFix,12,0,0.0,0.0,0,0.0,0.0,0,46.175545,-8.188483,-85.96712,981.2534,25.016693,5.3844857,-551.5166,71.398735
-5.720945,6.524448,-1.4692634,-22.819271,-165.42168,3.6505733,-332.0,-364.0,276.0,812213600.0,NoFix,12,0,0.0,0.0,0,0.0,0.0,0,46.020588,-5.7098947,-84.004486,981.2534,25.016693,1.6801144,-547.45044,67.4355
-5.4730067,6.616277,-0.5463823,-23.659271,-194.01668,-0.19942689,-333.0,-365.0,272.0,813516000.0,NoFix,12,0,0.0,0.0,0,0.0,0.0,0,45.867985,-2.8176494,-81.68055,981.2534,25.016693,3.483503,-549.2516,59.78975
-5.495964,6.6759663,0.22957242,-25.164272,-200.45668,-3.734427,-336.0,-367.0,272.0,814818400.0,NoFix,12,0,0.0,0.0,0,0.0,0.0,0,45.76908,0.19823126,-79.295715,981.2542,25.016693,8.987257,-553.24854,59.911793
-5.9321513,6.694332,0.8126863,-25.654272,-189.60667,-10.664427,-344.0,-363.0,270.0,816120800.0,NoFix,12,0,0.0,0.0,0,0.0,0.0,0,45.64616,3.085434,-77.06589,981.2542,25.016693,23.424854,-545.49115,55.95339
-6.5106735,6.671375,1.1478621,-23.449272,-177.84668,-16.544426,-339.0,-360.0,267.0,817423170.0,NoFix,12,0,0.0,0.0,0,0.0,0.0,0,45.495415,5.7859573,-74.969666,981.2542,25.016693,14.2304945,-539.34485,49.98902
-7.011142,6.5703626,1.1800022,-21.209272,-165.73668,-16.964426,-342.0,-363.0,265.0,818725570.0,NoFix,12,0,0.0,0.0,0,0.0,0.0,0,45.401886,8.284137,-73.005455,981.2542,25.016693,19.738253,-545.2122,46.3065
-7.2039824,6.5198565,1.5014036,-22.959272,-168.78168,-12.169427,-344.0,-366.0,259.0,820027970.0,NoFix,12,0,0.0,0.0,0,0.0,0.0,0,45.485256,10.842644,-71.01785,981.2542,25.016693,23.388075,-550.8706,34.912323
-6.94227,6.6208687,2.2498097,-20.159271,-176.86667,-6.569427,-354.0,-363.0,255.0,821330370.0,NoFix,12,0,0.0,0.0,0,0.0,0.0,0,45.809246,13.473933,-68.84945,981.25476,25.021233,41.467484,-545.03064,27.168873
-6.473942,6.7035146,2.9155695,-13.929271,-176.58667,-0.23442686,-354.0,-366.0,249.0,822632700.0,NoFix,12,0,0.0,0.0,0,0.0,0.0,0,46.39235,16.008295,-66.55834,981.25476,25.021233,41.4795,-550.642,15.755178
-6.230595,6.62546,3.36094,-9.8342705,-158.07167,0.8505731,-349.0,-365.0,254.0,823935200.0,NoFix,12,0,0.0,0.0,0,0.0,0.0,0,47.042953,18.223547,-64.41578,981.25476,25.021233,32.41026,-548.7931,25.287367
-6.3912964,6.464759,3.5032752,-8.154271,-143.72168,2.425573,-354.0,-366.0,244.0,825237500.0,NoFix,12,0,0.0,0.0,0,0.0,0.0,0,47.741447,20.198544,-62.421883,981.25476,25.021233,41.430702,-550.4101,6.1278086
-6.3224244,6.487716,3.7925365,-4.024271,-143.40668,7.535573,-354.0,-365.0,246.0,826539970.0,NoFix,12,0,0.0,0.0,0,0.0,0.0,0,48.63688,22.082949,-60.31776,981.25476,25.021233,41.426693,-548.5397,9.932373
-5.831139,6.7035146,4.3205533,6.475729,-148.20168,10.405573,-358.0,-366.0,245.0,827842300.0,NoFix,12,0,0.0,0.0,0,0.0,0.0,0,49.77131,23.84823,-57.92511,981.25507,25.021233,48.71607,-550.5506,8.0923195
-5.2939396,6.694332,4.3618755,15.925729,-156.56668,9.075573,-352.0,-367.0,246.0,829144640.0,NoFix,12,0,0.0,0.0,0,0.0,0.0,0,51.094006,25.52538,-55.19898,981.25507,25.021233,37.835938,-552.419,10.005621
-4.903667,6.441802,4.1139374,11.620729,-170.28668,7.7805734,-359.0,-365.0,245.0,830447040.0,NoFix,12,0,0.0,0.0,0,0.0,0.0,0,52.580612,27.355972,-52.209377,981.25507,25.021233,50.511444,-548.6109,8.0556965
-4.8072467,6.3545647,4.4123816,-1.819271,-178.65167,5.890573,-355.0,-369.0,237.0,831749440.0,NoFix,12,0,0.0,0.0,0,0.0,0.0,0,54.15146,29.41501,-49.156963,981.25507,25.021233,43.251858,-555.99854,-7.2016
-4.8302035,6.414253,4.926624,-7.5942707,-180.05168,6.2405734,-351.0,-367.0,237.0,833051840.0,NoFix,12,0,0.0,0.0,0,0.0,0.0,0,55.859188,31.503979,-46.02794,981.2561,25.03144,35.929203,-551.978,-7.3334045
-4.59604,6.6300516,5.4592323,-2.4492712,-176.72667,9.180573,-352.0,-368.0,234.0,834354200.0,NoFix,12,0,0.0,0.0,0,0.0,0.0,0,57.796677,33.39213,-42.751385,981.2561,25.03144,37.74235,-553.8256,-13.053683
-4.1231203,6.94227,6.0882607,9.485729,-166.43668,11.455573,-352.0,-366.0,242.0,835656600.0,NoFix,12,0,0.0,0.0,0,0.0,0.0,0,59.916344,34.891994,-39.375298,981.2561,25.03144,37.773376,-550.27026,2.2573414
-3.4573607,6.992776,6.4372106,18.725729,-157.65167,5.015573,-352.0,-366.0,239.0,836959000.0,NoFix,12,0,0.0,0.0,0,0.0,0.0,0,62.016743,36.05986,-35.94807,981.2561,25.03144,37.7441,-550.1311,-3.5190792
-3.2323794,6.772386,6.175498,22.435728,-160.27667,-3.839427,-350.0,-364.0,241.0,838261400.0,NoFix,12,0,0.0,0.0,0,0.0,0.0,0,64.10964,37.07777,-32.3332,981.2561,25.03144,34.07877,-546.2504,0.21958256
-3.4757264,6.6116858,5.7576766,13.615729,-164.30168,-2.7194269,-359.0,-369.0,238.0,839563800.0,NoFix,12,0,0.0,0.0,0,0.0,0.0,0,66.30948,38.154144,-28.62964,981.2561,25.03144,50.537224,-556.13904,-5.237088
-3.2691112,6.7953434,6.124992,4.340729,-161.71167,3.7905731,-356.0,-364.0,236.0,840866100.0,NoFix,12,0,0.0,0.0,0,0.0,0.0,0,68.664215,39.2589,-24.96894,981.2561,25.03144,44.94338,-546.15967,-9.349231
-2.0615602,7.167251,7.2177567,8.015729,-163.21667,8.970573,-350.0,-367.0,236.0,842168500.0,NoFix,12,0,0.0,0.0,0,0.0,0.0,0,71.32204,40.203903,-21.111803,981.2561,25.03144,34.100544,-551.9081,-9.268638
-0.82186925,7.0800133,7.4932437,27.86073,-177.88167,1.6905732,-351.0,-364.0,241.0,843470900.0,NoFix,12,0,0.0,0.0,0,0.0,0.0,0,74.26631,40.717686,-16.654541,981.2561,25.03144,35.89767,-546.274,0.2293415
-0.9412469,6.4372106,6.4004793,38.115726,-218.51668,-5.204427,-353.0,-367.0,242.0,844773300.0,NoFix,12,0,0.0,0.0,0,0.0,0.0,0,77.83864,41.03896,-11.07875,981.2561,25.03144,39.615807,-552.25696,2.3134832
-1.9513655,6.258144,5.918377,19.005728,-260.23666,10.335573,-354.0,-368.0,244.0,846075650.0,NoFix,12,0,0.0,0.0,0,0.0,0.0,0,82.32935,41.543022,-4.5429263,981.2561,25.03144,41.477753,-554.33655,6.2205753
-2.231444,7.089196,7.029507,0.77072895,-260.20166,31.510572,-354.0,-369.0,237.0,847378050.0,NoFix,12,0,0.0,0.0,0,0.0,0.0,0,87.28104,41.988617,2.0275304,981.25696,25.03144,41.432957,-555.97504,-7.211359
-0.9228811,7.95698,8.287564,11.410729,-212.14667,30.670574,-353.0,-364.0,238.0,848680450.0,NoFix,12,0,0.0,0.0,0,0.0,0.0,0,91.454414,41.841175,7.4300785,981.25696,25.03144,39.50619,-546.1818,-5.527561
0.38568166,7.67231,7.76873,38.990726,-168.22168,0.010573149,-347.0,-371.0,236.0,849982850.0,NoFix,12,0,0.0,0.0,0,0.0,0.0,0,94.23761,40.96475,11.634209,981.25696,25.03144,28.737934,-559.69037,-9.112384
0.4729192,6.6070943,5.5877924,45.850727,-158.87668,-19.554426,-355.0,-365.0,237.0,851285250.0,NoFix,12,0,0.0,0.0,0,0.0,0.0,0,96.34836,39.81706,15.480633,981.25696,25.03144,43.15776,-548.1457,-7.3871326
0.5463823,6.2351866,4.5593085,25.340729,-196.50168,0.64057314,-349.0,-370.0,240.0,852587600.0,NoFix,12,0,0.0,0.0,0,0.0,0.0,0,99.31989,38.812645,20.1638,981.25775,25.039948,32.39125,-557.9598,-1.4373522
1.1616364,7.0846047,6.1204004,16.730728,-235.63167,28.920574,-352.0,-364.0,242.0,853890000.0,NoFix,12,0,0.0,0.0,0,0.0,0.0,0,103.26932,37.636143,25.671333,981.25775,25.039948,37.72633,-546.3439,2.1645746
1.5519096,8.071766,7.60803,38.43073,-239.23668,27.310574,-352.0,-366.0,243.0,855192400.0,NoFix,12,0,0.0,0.0,0,0.0,0.0,0,106.898834,35.781517,30.90432,981.25775,25.039948,37.783134,-550.31665,4.1828156
1.4600805,8.039626,6.7448373,53.585728,-208.47168,6.4505734,-348.0,-357.0,248.0,856494800.0,NoFix,12,0,0.0,0.0,0,0.0,0.0,0,109.36693,33.608505,35.07655,981.25775,25.039948,30.344608,-532.7856,13.353699
1.6575129,7.5391583,5.1332393,48.545727,-161.71167,-4.049427,-349.0,-366.0,252.0,857797100.0,NoFix,12,0,0.0,0.0,0,0.0,0.0,0,110.89173,31.690922,38.105095,981.25775,25.039948,32.41427,-550.6635,21.482803
2.66304,7.300403,4.582266,51.31073,-123.17667,-2.0894268,-347.0,-365.0,252.0,859099500.0,NoFix,12,0,0.0,0.0,0,0.0,0.0,0,111.931274,29.92652,40.22576,981.2543,25.039948,28.752937,-548.65326,21.4169
3.287477,7.075422,4.4123816,60.41073,-130.24667,4.385573,-352.0,-366.0,266.0,860401900.0,NoFix,12,0,0.0,0.0,0,0.0,0.0,0,113.04938,27.921753,42.342102,981.2543,25.039948,38.007603,-551.3835,48.468716
2.8696554,7.0340986,4.0817976,53.02573,-165.84167,28.080574,-347.0,-368.0,264.0,861704300.0,NoFix,12,0,0.0,0.0,0,0.0,0.0,0,114.82329,25.729506,45.10618,981.2543,25.039948,28.940624,-555.09955,44.661736
2.8329237,7.497835,4.104755,40.77573,-186.35167,53.59557,-342.0,-367.0,270.0,863006700.0,NoFix,12,0,0.0,0.0,0,0.0,0.0,0,117.11588,23.496128,48.215313,981.2543,25.039948,19.88115,-553.29694,56.1194
3.8292677,7.9523883,4.2746387,42.140728,-179.73668,58.985573,-339.0,-364.0,266.0,864309060.0,NoFix,12,0,0.0,0.0,0,0.0,0.0,0,119.3049,21.195023,51.05715,981.2543,25.039948,14.314833,-547.1513,48.249077
4.710826,7.653944,3.6915245,57.015728,-179.52667,50.62057,-344.0,-360.0,277.0,865611460.0,NoFix,12,0,0.0,0.0,0,0.0,0.0,0,121.143425,18.55451,53.617004,981.2543,25.040512,23.422596,-539.9263,69.29256
4.5914483,7.089196,2.6492655,57.225727,-186.21167,49.360573,-342.0,-367.0,280.0,866913860.0,NoFix,12,0,0.0,0.0,0,0.0,0.0,0,122.83582,15.757944,56.162857,981.2543,25.040512,19.978745,-553.7608,75.37414
4.426156,7.1213365,2.139615,31.920727,-182.71167,50.06057,-335.0,-358.0,278.0,868216260.0,NoFix,12,0,0.0,0.0,0,0.0,0.0,0,124.43999,13.327417,58.80842,981.2543,25.040512,7.0151925,-535.8345,71.03743
5.454641,7.268263,2.1671636,14.035729,-171.02167,47.33057,-331.0,-361.0,276.0,869518600.0,NoFix,12,0,0.0,0.0,0,0.0,0.0,0,125.89445,11.243275,61.386814,981.2543,25.040512,-0.20936003,-541.53723,67.28659
6.3545647,7.2958117,2.6584485,29.225729,-187.12167,32.24557,-335.0,-357.0,278.0,870821000.0,NoFix,12,0,0.0,0.0,0,0.0,0.0,0,126.97842,8.71441,63.979027,981.2543,25.040512,6.9916677,-533.8713,70.99104
2.0294201,6.653009,-6.3637476,36.330727,-119.291664,-73.59443,-455.0,-308.0,358.0,905985500.0,NoFix,12,0,0.0,0.0,0,0.0,0.0,0,111.16281,-40.671978,93.97854,981.25104,25.05951,224.88794,-444.2075,223.9273
1.7355675,6.602503,-6.0882607,-0.38427103,-65.916664,-67.01443,-467.0,-299.0,357.0,907287800.0,NoFix,12,0,0.0,0.0,0,0.0,0.0,0,108.838646,-41.098873,95.56516,981.25104,25.05951,246.49329,-426.77454,221.7015
1.5243609,6.992776,-6.0882607,-26.424273,-29.446667,-69.56943,-467.0,-299.0,355.0,908590200.0,NoFix,12,0,0.0,0.0,0,0.0,0.0,0,106.88913,-40.789726,96.50689,981.25104,25.05951,246.47377,-426.68176,217.85057
1.0698075,7.001959,-6.051529,-40.704273,-9.601667,-56.23443,-473.0,-298.0,345.0,909892600.0,NoFix,12,0,0.0,0.0,0,0.0,0.0,0,105.4452,-40.09878,97.06815,981.25104,25.05951,257.26605,-424.39587,198.608
0.88155806,6.349973,-5.8862367,-40.35427,-9.916668,-24.209427,-475.0,-299.0,349.0,911195000.0,NoFix,12,0,0.0,0.0,0,0.0,0.0,0,104.62947,-39.423653,97.601814,981.25104,25.05951,260.96643,-426.59164,206.37578
0.6979001,5.9826574,-5.9137855,-25.234272,-20.241667,13.870573,-471.0,-303.0,341.0,912497400.0,NoFix,12,0,0.0,0.0,0,0.0,0.0,0,104.44939,-39.086773,98.28942,981.25104,25.05951,253.70685,-433.9793,191.11848
0.716266,6.0790777,-5.5281034,-15.504271,-18.596666,46.42057,-474.0,-305.0,345.0,913799740.0,NoFix,12,0,0.0,0.0,0,0.0,0.0,0,104.9512,-38.91036,98.86705,981.25104,25.05951,259.2496,-438.16187,198.94243
1.3774346,6.414253,-4.7980638,1.260729,-15.586667,60.595573,-469.0,-308.0,345.0,915102140.0,NoFix,12,0,0.0,0.0,0,0.0,0.0,0,105.857834,-38.996574,99.251945,981.25104,25.05951,250.2257,-443.93387,199.03279
2.3737788,6.832075,-4.9541726,31.150728,-28.431667,48.27557,-463.0,-308.0,339.0,916404540.0,NoFix,12,0,0.0,0.0,0,0.0,0.0,0,106.50347,-39.68812,99.719475,981.25104,25.05951,239.25371,-443.51443,187.42139
3.0165815,6.8642154,-6.0377545,50.365726,-50.02667,28.710573,-463.0,-306.0,343.0,917706940.0,NoFix,12,0,0.0,0.0,0,0.0,0.0,0,106.5495,-40.86975,100.54485,981.25104,25.05951,239.24571,-439.77353,195.03052
2.59876,6.643826,-6.584137,54.390728,-77.85167,20.800573,-472.0,-303.0,341.0,919009300.0,NoFix,12,0,0.0,0.0,0,0.0,0.0,0,105.97047,-42.28392,102.04853,981.25024,25.05951,255.52574,-434.00284,191.12825
1.0514417,6.395888,-6.5290394,62.05573,-108.09167,26.470573,-467.0,-305.0,344.0,920311700.0,NoFix,12,0,0.0,0.0,0,0.0,0.0,0,104.87922,-43.98055,104.36942,981.25024,25.05951,246.50755,-437.9508,196.94864
-0.93665546,6.556588,-7.98912,68.28573,-167.73167,40.610573,-469.0,-305.0,343.0,921614100.0,NoFix,12,0,0.0,0.0,0,0.0,0.0,0,102.87013,-46.004578,108.319244,981.25024,25.05951,250.1356,-437.95145,195.0427
1.0101186,6.7356544,-7.1488853,55.335728,-255.02168,39.94557,-478.0,-308.0,335.0,922916500.0,NoFix,12,0,0.0,0.0,0,0.0,0.0,0,98.724724,-47.944443,115.035034,981.25024,25.05951,266.49823,-443.68176,179.86588
3.2140138,6.203047,-5.4913726,38.745728,-168.29167,5.225573,-483.0,-303.0,326.0,924218940.0,NoFix,12,0,0.0,0.0,0,0.0,0.0,0,95.33988,-49.066246,119.70267,981.25024,25.05951,275.38727,-433.56586,162.3535
1.3361114,5.684213,-6.248961,38.780727,-97.17167,-9.054427,-488.0,-300.0,322.0,925521300.0,NoFix,12,0,0.0,0.0,0,0.0,0.0,0,93.12997,-49.925095,122.42573,981.25085,25.065468,284.37216,-427.60834,154.56125
-0.10101186,5.624524,-6.441802,49.00073,-77.78167,-8.004427,-490.0,-299.0,326.0,926823700.0,NoFix,12,0,0.0,0.0,0,0.0,0.0,0,91.215935,-50.90347,124.71254,981.25085,25.065468,288.02548,-425.8777,162.23628
-0.358133,5.8357306,-6.7264714,52.32573,-65.776665,-2.824427,-491.0,-301.0,325.0,928126340.0,NoFix,12,0,0.0,0.0,0,0.0,0.0,0,89.581985,-51.89387,126.739655,981.25085,25.065468,289.88168,-429.78125,160.41333
-0.1698836,5.8632793,-6.9514527,49.56073,-65.53167,-4.434427,-494.0,-303.0,327.0,929428400.0,NoFix,12,0,0.0,0.0,0,0.0,0.0,0,87.8558,-52.793476,128.83081,981.25085,25.065468,295.40494,-433.87103,164.38632
0.045914482,5.6474814,-7.1213365,52.53573,-71.58667,-10.279427,-493.0,-299.0,326.0,930730800.0,NoFix,12,0,0.0,0.0,0,0.0,0.0,0,85.78961,-53.706047,131.19566,981.25085,25.065468,293.48218,-425.94827,162.26556
-0.1607007,5.284757,-7.199391,67.41073,-92.30666,-11.6094265,-503.0,-289.0,326.0,932033200.0,NoFix,12,0,0.0,0.0,0,0.0,0.0,0,82.9925,-54.807243,134.38423,981.24866,25.065468,311.43594,-406.5514,161.89932
-0.93665546,5.1148734,-7.5116096,89.915726,-118.80167,-10.874427,-506.0,-289.0,328.0,933335550.0,NoFix,12,0,0.0,0.0,0,0.0,0.0,0,79.150314,-56.144936,138.80005,981.24866,25.065468,316.91217,-406.71475,165.77954
-1.2029595,5.2663913,-8.246241,97.68573,-152.29668,-11.189426,-515.0,-285.0,327.0,934637950.0,NoFix,12,0,0.0,0.0,0,0.0,0.0,0,73.99636,-57.279785,144.71172,981.24866,25.065468,333.17844,-399.02722,163.75636
-1.2442825,4.9312153,-8.044218,94.88573,-172.10667,-17.874428,-515.0,-285.0,321.0,935940350.0,NoFix,12,0,0.0,0.0,0,0.0,0.0,0,67.884415,-57.916954,151.56642,981.24866,25.065468,333.11987,-398.74893,152.20352
-1.8595365,4.3481016,-7.428963,96.110725,-151.38667,-16.334427,-524.0,-273.0,311.0,937242750.0,NoFix,12,0,0.0,0.0,0,0.0,0.0,0,62.14752,-58.353382,157.95668,981.24866,25.065468,349.11008,-374.9383,132.48003
-2.787009,3.7052987,-7.3968234,96.040726,-122.371666,-3.944427,-533.0,-274.0,319.0,938545150.0,NoFix,12,0,0.0,0.0,0,0.0,0.0,0,57.24497,-58.752647,163.59795,981.25,25.080215,365.58182,-377.4843,148.01805
-3.3288002,3.4895008,-7.488652,95.02573,-103.191666,20.695574,-529.0,-274.0,316.0,939847500.0,NoFix,12,0,0.0,0.0,0,0.0,0.0,0,53.203033,-59.109043,168.76479,981.25,25.080215,358.27692,-377.25104,142.20258
-3.1221848,3.8063107,-7.8376026,98.70073,-103.121666,22.165573,-526.0,-279.0,319.0,941149900.0,NoFix,12,0,0.0,0.0,0,0.0,0.0,0,49.084175,-59.331787,174.06471,981.25,25.080215,352.96716,-387.13568,148.18164
-3.64561,3.2094223,-7.5116096,106.22573,-104.31167,12.225574,-538.0,-267.0,318.0,942452300.0,NoFix,12,0,0.0,0.0,0,0.0,0.0,0,44.50692,-59.433037,179.63506,981.25,25.080215,374.5019,-363.81305,145.81668
-3.64561,2.9568927,-7.585073,114.06573,-98.32667,16.635572,-531.0,-269.0,315.0,943754700.0,NoFix,12,0,0.0,0.0,0,0.0,0.0,0,39.95403,-59.49877,-174.71202,981.25,25.080215,361.78738,-367.43564,140.06471
-3.4344034,3.0257645,-7.7365904,102.375725,-98.151665,2.110573,-537.0,-262.0,315.0,945057100.0,NoFix,12,0,0.0,0.0,0,0.0,0.0,0,35.49127,-59.21278,-169.47699,981.2517,25.080215,372.5361,-353.83432,139.79858
-4.2608643,2.7686431,-7.456512,112.665726,-87.23167,2.0755732,-542.0,-264.0,315.0,946359400.0,NoFix,12,0,0.0,0.0,0,0.0,0.0,0,31.019302,-58.98019,-164.2225,981.2517,25.080215,381.67767,-357.87836,139.94014
-4.940398,2.6492655,-7.3600917,103.74073,-73.721664,-1.004427,-540.0,-259.0,320.0,947661800.0,NoFix,12,0,0.0,0.0,0,0.0,0.0,0,27.02181,-58.67548,-159.57393,981.2517,25.080215,377.97107,-348.2472,149.31607
-5.2801657,2.1120663,-6.8733983,95.41073,-55.451668,-4.6794267,-546.0,-260.0,322.0,948964200.0,NoFix,12,0,0.0,0.0,0,0.0,0.0,0,23.491123,-58.449127,-155.54617,981.2517,25.080215,388.92746,-350.44434,153.27197
-5.0965075,1.68047,-7.2636714,97.65073,-40.296665,-1.7394269,-543.0,-255.0,322.0,950266600.0,NoFix,12,0,0.0,0.0,0,0.0,0.0,0,20.169065,-58.400387,-151.68959,981.2517,25.080215,383.35315,-340.55768,153.01077
-5.169971,1.3361114,-7.497835,97.89573,-37.77667,-2.4044268,-544.0,-250.0,333.0,951569000.0,NoFix,12,0,0.0,0.0,0,0.0,0.0,0,16.867247,-58.288784,-147.86732,981.25226,25.086739,385.1618,-331.27536,173.96884
-5.776042,0.8769666,-6.94227,106.610725,-32.52667,1.5855732,-547.0,-255.0,331.0,952871360.0,NoFix,12,0,0.0,0.0,0,0.0,0.0,0,13.433391,-58.17506,-143.79837,981.25226,25.086739,390.71658,-341.0692,170.37907
-6.230595,0.7346317,-6.574954,117.040726,-15.096667,10.125573,-545.0,-243.0,340.0,954173760.0,NoFix,12,0,0.0,0.0,0,0.0,0.0,0,10.013406,-58.346,-139.54503,981.25226,25.086739,386.88434,-317.8811,187.13223
-6.184681,0.8310522,-6.473942,109.93573,13.6033325,9.530573,-549.0,-247.0,349.0,955476160.0,NoFix,12,0,0.0,0.0,0,0.0,0.0,0,6.8700743,-58.90872,-135.64072,981.25226,25.086739,394.3419,-326.24548,204.68607
-5.495964,0.80350345,-6.809118,93.73073,44.648335,-1.2844269,-542.0,-234.0,363.0,956778560.0,NoFix,12,0,0.0,0.0,0,0.0,0.0,0,4.004788,-59.874905,-132.3231,981.25226,25.086739,381.44037,-301.20844,230.97139
-4.435339,-0.022957241,-7.814645,82.60073,59.698334,-15.179427,-543.0,-232.0,368.0,958080960.0,NoFix,12,0,0.0,0.0,0,0.0,0.0,0,1.0189588,-61.078712,-129.22003,981.2484,25.086739,383.26105,-297.53745,240.51576
-3.7007074,-0.92747253,-8.967098,95.305725,39.083332,-16.299427,-542.0,-230.0,374.0,959383360.0,NoFix,12,0,0.0,0.0,0,0.0,0.0,0,-2.701008,-61.830414,-125.34552,981.2484,25.086739,381.45364,-293.8658,251.96608
-3.5583725,-0.74381465,-9.361963,107.59073,9.053332,-16.089426,-542.0,-217.0,382.0,960685700.0,NoFix,12,0,0.0,0.0,0,0.0,0.0,0,-6.8719864,-61.871655,-120.9686,981.2484,25.086739,381.2259,-268.71512,266.76688
-4.118529,-0.36731586,-8.324296,104.860725,-0.3616674,-23.894426,-544.0,-217.0,386.0,961988100.0,NoFix,12,0,0.0,0.0,0,0.0,0.0,0,-10.962407,-61.566467,-116.82871,981.2484,25.086739,384.90274,-268.9477,274.4883
-4.8393865,-0.624437,-6.8871727,106.40073,15.213332,-30.754427,-548.0,-203.0,393.0,963290500.0,NoFix,12,0,0.0,0.0,0,0.0,0.0,0,-15.248525,-61.35174,-112.608925,981.2484,25.086739,391.91733,-241.88155,287.35632
-4.297596,-1.4417148,-7.534567,117.00573,31.593334,-28.934427,-546.0,-202.0,402.0,964592900.0,NoFix,12,0,0.0,0.0,0,0.0,0.0,0,-20.005966,-61.237457,-107.80622,981.24884,25.090424,388.3438,-240.28873,304.61966
-3.1405506,-2.364596,-9.329823,119.14073,6.498333,-26.519426,-547.0,-192.0,406.0,965895300.0,NoFix,12,0,0.0,0.0,0,0.0,0.0,0,-24.423801,-60.534206,-103.340645,981.24884,25.090424,389.96652,-220.86568,311.8675
-3.420629,-2.8788383,-8.898227,115.360725,-32.771667,-25.644426,-548.0,-182.0,408.0,967197630.0,NoFix,12,0,0.0,0.0,0,0.0,0.0,0,-27.888302,-59.030823,-99.91342,981.24884,25.090424,391.5697,-201.34985,315.26437
-4.5914483,-2.6814058,-7.098379,119.31573,-38.966667,-28.969427,-553.0,-175.0,409.0,968500030.0,NoFix,12,0,0.0,0.0,0,0.0,0.0,0,-31.034311,-57.240593,-96.85819,981.24884,25.090424,400.5093,-187.77138,316.91394
-5.1837454,-2.4426506,-6.3407903,109.27073,-8.341667,-40.764427,-551.0,-164.0,414.0,969802430.0,NoFix,12,0,0.0,0.0,0,0.0,0.0,0,-34.27827,-55.937546,-93.874725,981.24884,25.090424,396.6615,-166.36093,326.01157
-4.8669353,-2.7594604,-6.496899,88.34073,25.678333,-55.14943,-552.0,-155.0,421.0,971104830.0,NoFix,12,0,0.0,0.0,0,0.0,0.0,0,-37.689148,-55.310593,-90.9853,981.24884,25.090424,398.337,-149.04022,339.0822
-4.228724,-3.585921,-6.8642154,79.87073,41.498333,-67.32943,-554.0,-146.0,422.0,972407230.0,NoFix,12,0,0.0,0.0,0,0.0,0.0,0,-41.373325,-54.92969,-88.051796,981.24884,25.090424,401.7729,-131.46477,340.60977
-3.9394627,-4.7154174,-7.1856165,91.24573,30.438334,-60.64443,-556.0,-141.0,431.0,973709600.0,NoFix,12,0,0.0,0.0,0,0.0,0.0,0,-44.90192,-54.13809,-85.14237,981.24884,25.090424,405.38086,-122.11321,357.72662
-3.6823416,-4.573083,-7.199391,105.735725,11.363333,-42.86443,-554.0,-135.0,433.0,975012000.0,NoFix,12,0,0.0,0.0,0,0.0,0.0,0,-47.82896,-52.817146,-82.51221,981.24884,25.090424,401.62146,-110.37966,361.27975
-3.7328475,-3.8568168,-6.5474052,94.57073,20.218334,-60.46943,-562.0,-114.0,435.0,976314400.0,NoFix,12,0,0.0,0.0,0,0.0,0.0,0,-50.847607,-51.69476,-80.143234,981.24884,25.090424,415.69818,-69.43319,364.23474
-3.9348712,-4.0588403,-5.9413342,79.31073,47.90333,-75.48443,-557.0,-108.0,440.0,977616800.0,NoFix,12,0,0.0,0.0,0,0.0,0.0,0,-54.29064,-51.024136,-77.54671,981.24976,25.100632,406.5113,-57.76822,373.535
-3.3379831,-4.66032,-6.3729305,74.970726,63.863335,-74.85443,-554.0,-95.0,443.0,978919200.0,NoFix,12,0,0.0,0.0,0,0.0,0.0,0,-57.909817,-50.503025,-74.70533,981.24976,25.100632,400.77808,-32.31505,378.67917
-2.7181375,-5.532695,-7.03869,81.305725,51.998333,-68.06443,-547.0,-87.0,448.0,980221600.0,NoFix,12,0,0.0,0.0,0,0.0,0.0,0,-61.182934,-49.66468,-72.13167,981.24976,25.100632,387.90637,-16.676607,387.86716
-2.7273204,-6.0193887,-7.0065503,86.80073,38.768333,-58.78943,-543.0,-78.0,454.0,981523900.0,NoFix,12,0,0.0,0.0,0,0.0,0.0,0,-63.95054,-48.52595,-69.94774,981.24976,25.100632,380.47757,0.8080931,398.9635
-2.920161,-5.766859,-6.386705,80.99073,46.328335,-56.02443,-546.0,-63.0,458.0,982826300.0,NoFix,12,0,0.0,0.0,0,0.0,0.0,0,-66.60561,-47.476734,-67.79894,981.24976,25.100632,385.62045,30.000153,405.99893
-2.796192,-5.179154,-5.463824,63.595726,77.16333,-65.01943,-536.0,-57.0,468.0,984128700.0,NoFix,12,0,0.0,0.0,0,0.0,0.0,0,-69.75486,-46.876354,-65.14884,981.25146,25.100632,367.3879,41.55083,424.87778
-1.639147,-4.5501256,-5.6382985,40.425728,123.363335,-87.94443,-529.0,-48.0,473.0,985431100.0,NoFix,12,0,0.0,0.0,0,0.0,0.0,0,-74.05221,-46.88932,-61.532475,981.25146,25.100632,354.49268,59.152485,434.01938
-0.5142422,-5.5235124,-6.8871727,6.020729,149.68332,-122.62943,-512.0,-41.0,486.0,986733500.0,NoFix,12,0,0.0,0.0,0,0.0,0.0,0,-79.44071,-47.455482,-57.3653,981.25146,25.100632,323.53354,72.691895,458.55997
-0.5142422,-7.663127,-7.373866,0.105728984,134.52832,-120.87943,-499.0,-32.0,494.0,988035840.0,NoFix,12,0,0.0,0.0,0,0.0,0.0,0,-84.538795,-47.789562,-53.568275,981.25146,25.100632,299.75415,90.29555,473.4194
-0.3122185,-7.9523883,-7.557524,27.755728,108.83833,-86.75443,-490.0,-31.0,504.0,989338240.0,NoFix,12,0,0.0,0.0,0,0.0,0.0,0,-88.48923,-47.365845,-50.428925,981.25146,25.100632,283.4581,92.006645,492.53995
0.4361876,-6.7172885,-7.630987,25.375729,103.72833,-73.489426,-478.0,-25.0,509.0,990640640.0,NoFix,12,0,0.0,0.0,0,0.0,0.0,0,-92.02556,-46.88343,-47.49391,981.25146,25.100632,261.53894,103.83629,501.77188
1.3177457,-5.436275,-7.2039824,-15.539271,133.72333,-94.69943,-458.0,-20.0,515.0,991943040.0,NoFix,12,0,0.0,0.0,0,0.0,0.0,0,-96.60939,-47.018974,-43.678684,981.25146,25.100632,225.10185,113.844536,512.8977
2.3140898,-5.0046787,-7.32336,-66.67427,176.31833,-130.60944,-454.0,-23.0,519.0,993245440.0,NoFix,12,0,0.0,0.0,0,0.0,0.0,0,-102.90727,-47.70139,-38.46714,981.25146,25.100632,217.93584,107.86347,520.69965
2.529888,-6.2719183,-7.7044506,-91.34927,178.62833,-147.23444,-433.0,-23.0,529.0,994547840.0,NoFix,12,0,0.0,0.0,0,0.0,0.0,0,-109.90736,-48.414295,-32.814407,981.25146,25.100632,179.8365,107.89365,539.74945
1.6621044,-7.8238277,-7.2361226,-61.529274,145.13333,-119.54943,-413.0,-24.0,531.0,995850200.0,NoFix,12,0,0.0,0.0,0,0.0,0.0,0,-115.505066,-48.404594,-28.318855,981.25146,25.100632,143.50151,106.30816,543.4516
1.7126102,-7.383049,-6.2719183,-12.109271,118.21833,-56.65443,-403.0,-31.0,538.0,997152600.0,NoFix,12,0,0.0,0.0,0,0.0,0.0,0,-118.91364,-47.58229,-25.15675,981.252,25.1063,125.54548,92.47624,557.157
3.6410186,-5.0230446,-6.157132,9.555729,122.73334,-34.32443,-388.0,-20.0,539.0,998455000.0,NoFix,12,0,0.0,0.0,0,0.0,0.0,0,-121.65375,-46.237267,-22.308138,981.252,25.1063,98.01295,114.37805,558.4259
5.417909,-3.4665437,-7.4335546,-9.449271,135.40332,-70.54943,-372.0,-25.0,544.0,999757400.0,NoFix,12,0,0.0,0.0,0,0.0,0.0,0,-125.28443,-44.968254,-19.080164,981.252,25.1063,69.076935,104.70647,568.12897
5.702579,-4.0267,-8.641107,-49.20927,127.003334,-109.11943,-357.0,-27.0,545.0,1001059800.0,NoFix,12,0,0.0,0.0,0,0.0,0.0,0,-129.80354,-44.23937,-15.574409,981.252,25.1063,41.850216,101.08653,570.0008
5.082733,-5.408726,-7.9202485,-78.99427,108.348335,-121.50943,-344.0,-40.0,540.0,1002362200.0,NoFix,12,0,0.0,0.0,0,0.0,0.0,0,-134.5739,-43.984634,-12.015438,981.252,25.1063,18.461514,76.10252,560.8496
4.435339,-5.867871,-5.840322,-78.53927,101.418335,-108.13943,-329.0,-43.0,543.0,1003664500.0,NoFix,12,0,0.0,0.0,0,0.0,0.0,0,-138.87613,-43.576588,-8.698921,981.253,25.1063,-8.722161,70.426605,566.6188
4.770515,-4.6878686,-4.485845,-64.819275,118.988335,-88.67943,-325.0,-45.0,544.0,1004966900.0,NoFix,12,0,0.0,0.0,0,0.0,0.0,0,-142.78705,-42.60175,-5.429604,981.253,25.1063,-15.94096,66.54789,568.59796
6.336199,-2.8421066,-4.6373625,-54.914272,141.91333,-94.20943,-297.0,-58.0,539.0,1006269300.0,NoFix,12,0,0.0,0.0,0,0.0,0.0,0,-146.7274,-41.0014,-2.171561,981.253,25.1063,-66.61319,41.91675,559.30035
8.044218,-1.6666958,-5.890828,-57.504272,157.03333,-128.01942,-282.0,-63.0,538.0,1007571700.0,NoFix,12,0,0.0,0.0,0,0.0,0.0,0,-151.23306,-39.007206,1.0819747,981.253,25.1063,-93.78886,32.499947,557.4604
8.195735,-2.1855292,-6.671375,-78.99427,158.60832,-166.16943,-264.0,-80.0,540.0,1008874100.0,NoFix,12,0,0.0,0.0,0,0.0,0.0,0,-156.5228,-36.964886,4.539732,981.253,25.1063,-126.10965,-0.5439682,561.9242
7.0616474,-3.893548,-5.817365,-83.64927,147.79332,-162.73943,-252.0,-82.0,538.0,1010176450.0,NoFix,12,0,0.0,0.0,0,0.0,0.0,0,-161.37706,-34.913963,7.6107445,981.2541,25.11792,-147.90894,-4.095332,558.0489
6.299467,-4.228724,-4.187401,-72.694275,142.33333,-123.11943,-245.0,-88.0,533.0,1011478850.0,NoFix,12,0,0.0,0.0,0,0.0,0.0,0,-165.1222,-32.72237,10.14561,981.2541,25.11792,-160.5489,-15.478011,548.6315
6.94227,-2.2406268,-3.3379831,-62.36927,155.73833,-77.72443,-222.0,-100.0,526.0,1012781250.0,NoFix,12,0,0.0,0.0,0,0.0,0.0,0,-167.7006,-30.084188,12.310458,981.2541,25.11792,-202.16966,-38.1708,535.4853
9.283908,0.11478621,-3.6364272,-59.74427,161.37332,-67.18943,-213.0,-114.0,517.0,1014083650.0,NoFix,12,0,0.0,0.0,0,0.0,0.0,0,-169.91103,-27.296719,14.278911,981.2541,25.11792,-218.29828,-65.02659,518.7175
11.074573,1.2259167,-4.6649113,-56.559273,157.59332,-105.44443,-193.0,-119.0,513.0,1015386050.0,NoFix,12,0,0.0,0.0,0,0.0,0.0,0,-172.64914,-24.500103,15.980379,981.2541,25.11792,-254.59773,-74.186615,511.05237
10.762355,0.46832773,-4.7062345,-68.319275,144.88832,-147.02443,-185.0,-135.0,505.0,1016688450.0,NoFix,12,0,0.0,0.0,0,0.0,0.0,0,-176.15746,-21.888702,17.719152,981.2565,25.11792,-268.85065,-105.03874,496.31265
9.394103,-1.0789905,-3.411446,-66.39427,135.15833,-161.47943,-175.0,-145.0,497.0,1017990800.0,NoFix,12,0,0.0,0.0,0,0.0,0.0,0,-179.70973,-19.36212,19.173725,981.2565,25.11792,-286.88248,-124.064545,481.2751
8.356436,-1.6161897,-2.612534,-62.01927,142.36833,-144.32942,-160.0,-156.0,483.0,1019293200.0,NoFix,12,0,0.0,0.0,0,0.0,0.0,0,177.18617,-16.632177,20.367558,981.2565,25.11792,-314.04388,-144.65762,454.68228
8.6594715,-0.8723752,-2.846698,-56.80427,139.95332,-114.40443,-159.0,-170.0,474.0,1020595600.0,NoFix,12,0,0.0,0.0,0,0.0,0.0,0,174.80885,-13.91465,21.301025,981.2565,25.11792,-315.62128,-171.70161,437.9926
9.926711,1.0376673,-3.6134698,-55.36927,116.958336,-100.684425,-152.0,-179.0,470.0,1021898000.0,NoFix,12,0,0.0,0.0,0,0.0,0.0,0,172.71472,-11.630403,22.140657,981.2565,25.11792,-328.18088,-189.02031,430.63986
10.5236,2.1212492,-2.8007834,-84.874275,103.51833,-111.84943,-148.0,-197.0,452.0,1023200400.0,NoFix,12,0,0.0,0.0,0,0.0,0.0,0,170.32991,-9.469036,23.50357,981.2571,25.124725,-335.2087,-223.42911,396.77716
9.747645,1.5427266,-0.7759548,-81.86427,96.13333,-125.95443,-148.0,-202.0,442.0,1024502850.0,NoFix,12,0,0.0,0.0,0,0.0,0.0,0,167.77293,-7.3564687,24.716305,981.2571,25.124725,-335.1887,-232.78134,377.75436
8.852312,1.4417148,-0.036731586,-55.649273,94.628334,-118.114426,-144.0,-208.0,438.0,1025805200.0,NoFix,12,0,0.0,0.0,0,0.0,0.0,0,165.48402,-5.3269634,25.338194,981.2571,25.124725,-342.3622,-244.28096,370.29172
8.709977,2.1258407,-0.7116745,-41.684273,90.00833,-99.77443,-146.0,-215.0,428.0,1027107600.0,NoFix,12,0,0.0,0.0,0,0.0,0.0,0,163.57436,-3.4671552,25.652002,981.2571,25.124725,-338.65732,-257.60666,351.3812
9.219628,3.0257645,-1.5932326,-46.33927,75.308334,-89.76443,-144.0,-227.0,429.0,1028410050.0,NoFix,12,0,0.0,0.0,0,0.0,0.0,0,161.84421,-1.8760556,26.073925,981.2571,25.124725,-342.0031,-281.16452,353.84375
9.798151,3.8017192,-1.3269285,-69.15927,65.22833,-95.39943,-144.0,-239.0,417.0,1029712300.0,NoFix,12,0,0.0,0.0,0,0.0,0.0,0,160.00352,-0.30909145,26.925165,981.2567,25.124725,-341.8379,-304.16647,331.29465
9.35278,3.820085,0.5463823,-64.08427,50.773335,-107.75443,-145.0,-248.0,408.0,1031014700.0,NoFix,12,0,0.0,0.0,0,0.0,0.0,0,157.95418,1.0447032,27.729351,981.2567,25.124725,-339.8951,-321.44144,314.3926
8.416125,3.810902,2.2681756,-40.21427,48.708332,-109.08443,-152.0,-263.0,401.0,1032317100.0,NoFix,12,0,0.0,0.0,0,0.0,0.0,0,155.89243,2.1955233,28.09387,981.2567,25.124725,-326.87823,-350.72955,301.67834
7.7090416,3.7052987,2.6354914,-52.849274,106.17834,-154.09444,-158.0,-268.0,391.0,1033619460.0,NoFix,12,0,0.0,0.0,0,0.0,0.0,0,152.96817,4.448319,28.151274,981.2567,25.124725,-315.94482,-360.22296,282.71408
7.2453055,3.8476338,1.0927646,-89.84427,127.388336,-151.92442,-163.0,-279.0,377.0,1034921860.0,NoFix,12,0,0.0,0.0,0,0.0,0.0,0,150.1197,7.4008255,28.525492,981.2565,25.122177,-306.72815,-381.28653,256.31644
7.9248395,5.1837454,0.10101186,-92.889275,74.71333,-101.27943,-163.0,-295.0,370.0,1036224260.0,NoFix,12,0,0.0,0.0,0,0.0,0.0,0,148.2984,9.480707,29.344168,981.2565,25.122177,-306.4201,-412.37323,243.58026
8.549277,5.711762,1.4600805,-76.75427,52.208332,-99.24943,-176.0,-304.0,353.0,1037526660.0,NoFix,12,0,0.0,0.0,0,0.0,0.0,0,146.5318,11.090597,30.085234,981.2565,25.122177,-282.72855,-429.55945,211.39154
7.8330107,4.7751064,2.7594604,-51.309273,36.598335,-102.08443,-182.0,-314.0,354.0,1038829060.0,NoFix,12,0,0.0,0.0,0,0.0,0.0,0,144.69385,12.2449465,30.539776,981.2565,25.122177,-271.57013,-449.3791,213.8394
6.75402,3.9670112,3.0165815,-24.359272,37.158333,-84.934425,-181.0,-316.0,351.0,1040131460.0,NoFix,12,0,0.0,0.0,0,0.0,0.0,0,143.09308,13.124911,30.519566,981.2565,25.122177,-273.37128,-453.14282,208.14598
6.653009,4.651137,2.4288762,-14.069271,37.298332,-53.32943,-184.0,-317.0,348.0,1041433800.0,NoFix,12,0,0.0,0.0,0,0.0,0.0,0,142.04115,13.8687105,30.3111,981.2556,25.122177,-267.92032,-455.03748,202.4452
7.5116096,6.2948756,1.7401589,-30.764273,33.763332,-49.82943,-190.0,-316.0,339.0,1042736200.0,NoFix,12,0,0.0,0.0,0,0.0,0.0,0,141.1005,14.711175,30.386992,981.2556,25.122177,-257.11826,-452.79797,185.12813
8.035035,7.3095856,1.8044392,-56.349274,29.388334,-69.53443,-197.0,-321.0,337.0,1044038600.0,NoFix,12,0,0.0,0.0,0,0.0,0.0,0,139.89133,15.790922,30.8899,981.2556,25.122177,-244.28786,-462.6859,181.57741
7.621804,6.763203,3.0395389,-76.96427,31.138334,-93.544426,-200.0,-331.0,330.0,1045341000.0,NoFix,12,0,0.0,0.0,0,0.0,0.0,0,138.32242,17.197268,31.658295,981.2556,25.122177,-238.66422,-482.0639,168.59221
6.2627354,5.119465,4.201175,-69.22927,42.758335,-102.08443,-212.0,-335.0,320.0,1046643400.0,NoFix,12,0,0.0,0.0,0,0.0,0.0,0,136.52441,18.698471,32.12632,981.2556,25.122177,-216.8409,-489.7352,149.6401
5.454641,4.834795,3.9761941,-46.899273,44.578335,-83.14943,-215.0,-341.0,311.0,1047945800.0,NoFix,12,0,0.0,0.0,0,0.0,0.0,0,134.9727,19.966595,32.203648,981.2569,25.135223,-211.33087,-501.1676,132.61842
5.9964314,6.3316073,3.0946362,-40.984272,41.288334,-72.75443,-219.0,-345.0,310.0,1049248100.0,NoFix,12,0,0.0,0.0,0,0.0,0.0,0,133.57864,21.067043,32.199387,981.2569,25.135223,-203.97093,-509.06815,130.91753
6.395888,7.2039824,2.9155695,-67.33927,42.443333,-87.80443,-230.0,-346.0,300.0,1050550500.0,NoFix,12,0,0.0,0.0,0,0.0,0.0,0,132.01408,22.526636,32.51955,981.2569,25.135223,-184.03708,-510.8263,111.81651
6.0469375,6.7448373,3.4986837,-82.56427,45.348335,-101.87443,-241.0,-354.0,290.0,1051852900.0,NoFix,12,0,0.0,0.0,0,0.0,0.0,0,130.24817,24.263355,32.970177,981.2569,25.135223,-163.93857,-526.3269,93.04019
5.427092,6.1295834,3.9761941,-65.09927,42.758335,-103.09943,-252.0,-359.0,288.0,1053155300.0,NoFix,12,0,0.0,0.0,0,0.0,0.0,0,128.37378,25.741423,33.17491,981.2569,25.135223,-143.83253,-536.30896,89.52852
4.9725385,6.0377545,4.2608643,-54.31927,35.898335,-96.169426,-256.0,-360.0,280.0,1054457700.0,NoFix,12,0,0.0,0.0,0,0.0,0.0,0,126.60043,26.989126,33.298565,981.2569,25.135223,-136.61148,-537.99524,74.210144
4.7980638,6.450985,4.573083,-62.89427,38.523335,-93.36943,-269.0,-364.0,269.0,1055760100.0,NoFix,12,0,0.0,0.0,0,0.0,0.0,0,124.885765,28.398792,33.450104,981.25354,25.135223,-112.979004,-545.6437,53.342335
4.742966,6.9973674,4.8715267,-70.97927,41.708332,-98.23443,-276.0,-366.0,261.0,1057062460.0,NoFix,12,0,0.0,0.0,0,0.0,0.0,0,123.07383,29.965637,33.590626,981.25354,25.135223,-100.27773,-549.3637,38.09963
4.609814,7.3600917,5.2021112,-70.804276,42.093334,-110.55443,-279.0,-364.0,255.0,1058364860.0,NoFix,12,0,0.0,0.0,0,0.0,0.0,0,120.9942,31.532465,33.64891,981.25354,25.135223,-94.92663,-545.22955,26.483297
4.1919923,7.2544885,5.6291156,-73.46427,41.848335,-122.90943,-298.0,-372.0,244.0,1059667260.0,NoFix,12,0,0.0,0.0,0,0.0,0.0,0,118.66243,33.149,33.6864,981.25354,25.135223,-60.28665,-560.872,5.859579
3.4527693,6.643826,5.978066,-61.21427,49.303333,-122.83943,-305.0,-369.0,246.0,1060969660.0,NoFix,12,0,0.0,0.0,0,0.0,0.0,0,116.129135,34.64056,33.344326,981.25354,25.135223,-47.605396,-555.2398,9.639694
2.7732346,6.2214127,5.8540964,-58.309273,52.313335,-110.58943,-323.0,-367.0,232.0,1062272060.0,NoFix,12,0,0.0,0.0,0,0.0,0.0,0,113.71435,36.095436,32.838703,981.25354,25.135223,-15.048844,-551.08746,-17.23404
2.5023394,6.2076383,5.394952,-78.18927,63.093334,-102.32943,-328.0,-372.0,226.0,1063574460.0,NoFix,12,0,0.0,0.0,0,0.0,0.0,0,111.36089,37.938953,32.183643,981.25354,25.135223,-5.8952684,-560.74286,-28.506166
2.0156457,6.441802,4.9909043,-136.49927,87.17333,-115.489426,-349.0,-372.0,213.0,1064876800.0,NoFix,12,0,0.0,0.0,0,0.0,0.0,0,108.59912,40.92785,31.342371,981.25354,25.135223,32.174797,-560.6339,-53.332382
1.3407029,6.349973,5.385769,-202.01927,99.878334,-111.95443,-352.0,-366.0,193.0,1066179200.0,NoFix,12,0,0.0,0.0,0,0.0,0.0,0,105.80653,45.140636,30.420431,981.25354,25.135223,37.295162,-547.9975,-92.09088
0.78513765,5.385769,6.91013,-205.16927,92.94833,-104.46443,-372.0,-359.0,175.0,1067481600.0,NoFix,12,0,0.0,0.0,0,0.0,0.0,0,102.986626,49.38563,29.342474,981.25366,25.138054,73.33286,-533.8906,-126.87891
0.38568166,4.7842894,7.7136335,-142.16927,70.933334,-93.47443,-387.0,-364.0,164.0,1068784000.0,NoFix,12,0,0.0,0.0,0,0.0,0.0,0,100.23276,52.335056,28.128033,981.25366,25.138054,100.62666,-543.5493,-147.68082
0.22957242,4.8990755,7.2958117,-96.63427,63.653336,-82.58943,-391.0,-352.0,152.0,1070086400.0,NoFix,12,0,0.0,0.0,0,0.0,0.0,0,97.40302,54.35326,26.599707,981.25366,25.138054,107.50285,-519.5283,-171.30406
0.11478621,4.9725385,7.1029706,-88.584274,51.683334,-76.32443,-400.0,-354.0,147.0,1071388800.0,NoFix,12,0,0.0,0.0,0,0.0,0.0,0,94.77565,56.132042,25.200193,981.25366,25.138054,123.87123,-523.43445,-180.75082
-0.14233491,4.779698,7.525384,-102.374275,43.52833,-69.21943,-411.0,-346.0,138.0,1072691200.0,NoFix,12,0,0.0,0.0,0,0.0,0.0,0,92.34036,58.130207,23.905388,981.25366,25.138054,143.60312,-507.57013,-198.34381
-0.3030356,4.729192,8.475814,-106.959274,40.448334,-62.14943,-414.0,-340.0,136.0,1073993600.0,NoFix,12,0,0.0,0.0,0,0.0,0.0,0,89.91375,60.18951,22.481255,981.2491,25.138054,148.89917,-495.7687,-202.44377
-0.24334675,4.811838,9.316049,-80.98927,46.293335,-58.159428,-420.0,-338.0,134.0,1075296000.0,NoFix,12,0,0.0,0.0,0,0.0,0.0,0,87.147255,61.716972,20.59573,981.2491,25.138054,159.746,-491.89066,-206.32892
-0.624437,4.2516813,9.504298,-62.96427,60.153336,-59.909428,-427.0,-329.0,124.0,1076598400.0,NoFix,12,0,0.0,0.0,0,0.0,0.0,0,83.64035,62.83869,17.941713,981.2491,25.138054,172.169,-473.9226,-225.9328
-1.2350996,3.5216408,9.371146,-53.969273,66.06834,-55.639427,-431.0,-323.0,129.0,1077900700.0,NoFix,12,0,0.0,0.0,0,0.0,0.0,0,79.772606,63.70394,14.817053,981.2491,25.138054,179.35226,-462.46933,-216.5447
-1.432532,3.553781,9.146166,-48.40427,65.96333,-45.874428,-439.0,-326.0,123.0,1079203100.0,NoFix,12,0,0.0,0.0,0,0.0,0.0,0,75.9404,64.3602,11.542142,981.2491,25.138054,193.91548,-468.2689,-227.88031
-1.2213253,4.169035,8.916593,-58.204273,68.41333,-46.64443,-452.0,-326.0,119.0,1080505500.0,NoFix,12,0,0.0,0.0,0,0.0,0.0,0,71.761284,65.05784,7.9143333,981.2491,25.138054,217.52217,-468.38916,-235.45532
-1.1294963,4.3389187,8.645698,-76.96427,71.24834,-54.44943,-464.0,-311.0,117.0,1081807900.0,NoFix,12,0,0.0,0.0,0,0.0,0.0,0,66.85513,65.93312,3.6812618,981.25024,25.150246,238.9766,-439.1305,-239.88492
-1.3085628,3.9716027,8.452857,-100.34427,74.92333,-59.909428,-469.0,-308.0,114.0,1083110300.0,NoFix,12,0,0.0,0.0,0,0.0,0.0,0,60.905266,67.00571,-1.553115,981.25024,25.150246,247.97127,-433.21936,-245.7517
-1.4417148,3.4849093,8.273789,-110.459274,78.598335,-67.95943,-471.0,-301.0,113.0,1084412700.0,NoFix,12,0,0.0,0.0,0,0.0,0.0,0,53.915165,67.96231,-7.7188773,981.25024,25.150246,251.43463,-419.47754,-247.98233
-1.464672,3.145142,7.8743343,-118.57927,80.73334,-73.17443,-483.0,-297.0,101.0,1085715100.0,NoFix,12,0,0.0,0.0,0,0.0,0.0,0,46.015533,68.69442,-14.722865,981.25024,25.150246,273.05026,-411.35037,-271.15643
-1.1708193,3.3333917,7.190208,-123.40927,78.17834,-82.27443,-495.0,-280.0,104.0,1087017500.0,NoFix,12,0,0.0,0.0,0,0.0,0.0,0,37.35315,69.14507,-22.305227,981.25024,25.150246,294.5064,-378.39725,-266.05142
-0.60147977,3.3793058,6.327016,-144.58427,70.513336,-103.58943,-511.0,-262.0,90.0,1088319900.0,NoFix,12,0,0.0,0.0,0,0.0,0.0,0,27.34515,69.48385,-30.857454,981.2511,25.150246,323.04877,-342.7865,-293.6868
-0.7484061,2.2498097,6.653009,-178.77927,63.128334,-138.76443,-521.0,-250.0,89.0,1089622300.0,NoFix,12,0,0.0,0.0,0,0.0,0.0,0,15.059701,69.59422,-41.114506,981.2511,25.150246,340.94574,-319.4168,-296.07126
-2.0294201,0.23875532,7.966163,-179.82927,64.56333,-157.80443,-532.0,-238.0,84.0,1090924700.0,NoFix,12,0,0.0,0.0,0,0.0,0.0,0,2.628328,68.93941,-51.16223,981.2511,25.150246,360.6226,-295.88513,-306.1479
-3.3838973,-1.6024156,8.696203,-147.94427,73.66333,-152.13443,-545.0,-220.0,88.0,1092227100.0,NoFix,12,0,0.0,0.0,0,0.0,0.0,0,-7.235517,67.42387,-58.61839,981.2511,25.150246,383.88394,-261.0387,-299.15402
-4.210358,-2.4105103,9.1278,-127.99427,80.73334,-132.42943,-559.0,-198.0,88.0,1093529500.0,NoFix,12,0,0.0,0.0,0,0.0,0.0,0,-14.6158285,65.44485,-63.86646,981.2511,25.150246,408.831,-218.17738,-300.0378
-4.7383747,-2.5574367,9.260951,-109.89927,85.668335,-113.49443,-567.0,-184.0,83.0,1094831700.0,NoFix,12,0,0.0,0.0,0,0.0,0.0,0,-19.989212,63.24281,-67.379906,981.25146,25.154503,423.0041,-190.64871,-310.23648
-5.0643673,-2.920161,8.833946,-95.75927,84.61833,-97.81443,-574.0,-175.0,91.0,1096134100.0,NoFix,12,0,0.0,0.0,0,0.0,0.0,0,-23.956936,61.037437,-69.71747,981.25146,25.154503,435.60272,-173.51555,-295.1818
-5.3903604,-3.36094,8.691611,-93.16927,81.85333,-85.07443,-581.0,-158.0,94.0,1097436500.0,NoFix,12,0,0.0,0.0,0,0.0,0.0,0,-27.215504,58.833916,-71.563095,981.25146,25.154503,447.9644,-140.44478,-290.12558
-5.6061583,-3.6915245,8.755892,-80.84927,87.208336,-72.22943,-587.0,-149.0,99.0,1098739000.0,NoFix,12,0,0.0,0.0,0,0.0,0.0,0,-29.515507,56.61481,-72.61324,981.25146,25.154503,458.71487,-123.14894,-280.85712
-5.9734745,-4.159852,8.172778,-52.149273,89.308334,-68.55443,-592.0,-143.0,109.0,1100041300.0,NoFix,12,0,0.0,0.0,0,0.0,0.0,0,-30.855501,54.606937,-72.61245,981.2519,25.154503,467.76584,-111.951126,-261.83185
-6.414253,-4.495028,7.4702864,-37.379272,75.79833,-56.02443,-598.0,-138.0,109.0,1101343700.0,NoFix,12,0,0.0,0.0,0,0.0,0.0,0,-31.727432,53.00683,-72.3488,981.2519,25.154503,478.56165,-102.276215,-262.00522
-6.5106735,-4.504211,7.29122,-32.094273,62.638332,-41.35943,-602.0,-131.0,117.0,1102646100.0,NoFix,12,0,0.0,0.0,0,0.0,0.0,0,-32.373623,51.647236,-72.13976,981.2519,25.154503,485.75067,-88.99891,-246.88708
-6.3912964,-4.2654557,7.406006,-21.419271,49.65333,-27.044428,-605.0,-127.0,124.0,1103948500.0,NoFix,12,0,0.0,0.0,0,0.0,0.0,0,-32.692062,50.59133,-71.85469,981.2519,25.154503,491.18158,-81.54132,-233.56502
-6.051529,-3.8154936,7.5621157,1.4007291,41.393333,-19.099426,-607.0,-123.0,125.0,1105251000.0,NoFix,12,0,0.0,0.0,0,0.0,0.0,0,-32.51638,49.92161,-71.127266,981.2519,25.154503,494.73505,-73.781906,-231.80556
-5.6382985,-3.3838973,7.6677184,34.09073,33.728333,-24.174427,-609.0,-125.0,127.0,1106553300.0,NoFix,12,0,0.0,0.0,0,0.0,0.0,0,-31.915245,49.721992,-69.721,981.2519,25.154503,498.43942,-77.84814,-227.84233
-5.4041348,-3.0992277,7.7136335,52.46573,23.403334,-32.889427,-611.0,-127.0,131.0,1107855700.0,NoFix,12,0,0.0,0.0,0,0.0,0.0,0,-31.250412,49.872677,-68.01803,981.25195,25.155357,502.16333,-82.00714,-220.02815
-5.445458,-3.1175933,7.897291,40.32073,22.948334,-35.61943,-619.0,-123.0,132.0,1109158100.0,NoFix,12,0,0.0,0.0,0,0.0,0.0,0,-30.874561,49.903843,-66.62022,981.25195,25.155357,516.6301,-74.38888,-218.21013
-5.661256,-3.411446,7.8421936,35.98073,27.183334,-36.84443,-619.0,-118.0,129.0,1110460500.0,NoFix,12,0,0.0,0.0,0,0.0,0.0,0,-30.567377,49.809055,-65.27842,981.25195,25.155357,516.4833,-64.43367,-224.21848
-5.8770537,-3.7420304,7.54375,36.120728,20.008333,-32.714428,-619.0,-115.0,140.0,1111763000.0,NoFix,12,0,0.0,0.0,0,0.0,0.0,0,-30.273241,49.814327,-64.04138,981.25195,25.155357,516.5201,-59.054253,-203.1774
-3.604287,6.239778,2.2176695,414.89075,-96.471664,27.520573,-592.0,-224.0,255.0,1146927500.0,NoFix,12,0,0.0,0.0,0,0.0,0.0,0,73.65161,4.8884583,81.79058,981.25,25.174637,471.09622,-277.74316,23.044357
-3.3425746,7.5804815,0.63361984,383.25073,-82.08667,44.70557,-594.0,-224.0,259.0,1148229900.0,NoFix,12,0,0.0,0.0,0,0.0,0.0,0,74.555435,-1.6762496,85.28136,981.25,25.174637,474.77307,-277.97574,30.76577
-2.621717,8.824763,-0.8494179,287.45575,-62.03167,33.645573,-593.0,-227.0,268.0,1149532300.0,NoFix,12,0,0.0,0.0,0,0.0,0.0,0,75.00037,-6.646037,87.86056,981.25,25.174637,473.11255,-284.2593,48.224426
-2.5666196,8.035035,-0.89992386,244.79073,-70.85167,29.095573,-582.0,-221.0,277.0,1150834600.0,NoFix,12,0,0.0,0.0,0,0.0,0.0,0,75.15439,-10.780997,90.38785,981.25,25.174637,453.0513,-272.6387,65.16804
-3.0349474,6.850441,-0.13774344,319.90076,-95.87666,50.62057,-581.0,-218.0,291.0,1152137000.0,NoFix,12,0,0.0,0.0,0,0.0,0.0,0,75.322845,-16.19426,93.77553,981.25037,25.179176,451.29846,-267.3749,91.97577
-3.420629,6.7264714,-0.63361984,405.93076,-88.07167,71.44557,-584.0,-221.0,303.0,1153439400.0,NoFix,12,0,0.0,0.0,0,0.0,0.0,0,75.402664,-23.234207,97.5466,981.25037,25.179176,456.94287,-273.89172,115.249886
-3.2048311,6.956044,-2.7640517,417.86575,-64.166664,81.63057,-577.0,-219.0,318.0,1154741800.0,NoFix,12,0,0.0,0.0,0,0.0,0.0,0,75.33712,-30.60876,101.0979,981.25037,25.179176,444.3099,-270.49637,143.97092
-2.6722229,6.6805577,-5.2572083,356.19574,-35.291668,67.42057,-577.0,-211.0,325.0,1156044200.0,NoFix,12,0,0.0,0.0,0,0.0,0.0,0,74.98499,-36.9982,103.972946,981.25037,25.179176,444.19003,-255.11539,157.07816
-2.8053749,4.949581,-5.0643673,318.81573,-20.066668,57.02557,-574.0,-211.0,343.0,1157346600.0,NoFix,12,0,0.0,0.0,0,0.0,0.0,0,74.42724,-42.741035,106.52192,981.25037,25.179176,438.909,-255.8797,191.70741
-3.0257645,3.3793058,-6.0469375,361.09573,-55.066666,84.43057,-573.0,-202.0,351.0,1158649000.0,NoFix,12,0,0.0,0.0,0,0.0,0.0,0,73.01188,-49.036373,110.71706,981.25037,25.179176,436.95642,-238.55835,206.68399
-2.6354914,3.778762,-7.5391583,343.59573,-28.256666,102.385574,-569.0,-202.0,366.0,1159951400.0,NoFix,12,0,0.0,0.0,0,0.0,0.0,0,71.76739,-55.099728,114.75784,981.2478,25.179176,429.8272,-239.15999,235.52707
-1.9605484,4.2930045,-8.168186,308.10574,-12.716667,87.33557,-568.0,-191.0,380.0,1161253800.0,NoFix,12,0,0.0,0.0,0,0.0,0.0,0,69.98482,-60.572716,118.803345,981.2478,25.179176,427.88617,-218.19052,261.9637
-1.7309761,3.2461538,-9.697139,257.95074,1.4933327,74.10557,-566.0,-181.0,392.0,1162556200.0,NoFix,12,0,0.0,0.0,0,0.0,0.0,0,67.98125,-65.203064,122.61521,981.2478,25.179176,424.13025,-199.06795,284.58606
-2.1993036,1.4830378,-9.495115,217.66573,-2.5316675,79.21557,-565.0,-179.0,398.0,1163858600.0,NoFix,12,0,0.0,0.0,0,0.0,0.0,0,65.52317,-68.989975,126.91388,981.2478,25.179176,422.32288,-195.39632,296.03638
-2.7089546,0.1790665,-7.906474,215.60072,2.0883327,96.85557,-555.0,-178.0,405.0,1165161000.0,NoFix,12,0,0.0,0.0,0,0.0,0.0,0,62.288486,-72.69594,132.2939,981.2492,25.194199,404.17862,-193.52254,309.37073
-2.897204,-0.47751063,-6.184681,304.29074,24.663334,156.28557,-547.0,-169.0,422.0,1166463400.0,NoFix,12,0,0.0,0.0,0,0.0,0.0,0,55.40091,-77.92237,142.48865,981.2492,25.194199,389.5816,-176.45395,341.60828
-1.822805,-0.8677837,-6.506082,369.84573,73.558334,198.84557,-545.0,-156.0,440.0,1167765800.0,NoFix,12,0,0.0,0.0,0,0.0,0.0,0,33.871372,-84.066,168.06567,981.2492,25.194199,385.81366,-151.72006,375.6443
-0.4545534,-1.4968122,-7.970754,378.94574,105.44334,195.03058,-524.0,-144.0,459.0,1169068200.0,NoFix,12,0,0.0,0.0,0,0.0,0.0,0,-49.589355,-85.491844,-104.93701,981.2492,25.194199,347.51984,-128.5488,411.46674
0.23416387,-2.337047,-8.425308,322.84076,152.02832,169.27057,-507.0,-134.0,480.0,1170370400.0,NoFix,12,0,0.0,0.0,0,0.0,0.0,0,-86.871925,-80.45776,-64.03743,981.2492,25.194199,316.56824,-109.49081,451.27194
0.8494179,-3.64561,-8.292155,243.88072,199.94333,133.08057,-496.0,-122.0,491.0,1171672800.0,NoFix,12,0,0.0,0.0,0,0.0,0.0,0,-100.68004,-75.509315,-47.28358,981.24835,25.194199,296.38538,-86.18372,471.7882
1.3039714,-4.8715267,-7.54375,170.59073,229.97333,118.52057,-467.0,-123.0,505.0,1172975200.0,NoFix,12,0,0.0,0.0,0,0.0,0.0,0,-109.679535,-71.2065,-35.48969,981.24835,25.194199,243.79738,-88.1141,498.5082
2.8834295,-3.8017192,-5.9918404,126.70073,271.83334,120.44557,-452.0,-108.0,519.0,1174277600.0,NoFix,12,0,0.0,0.0,0,0.0,0.0,0,-117.26071,-66.92002,-24.90023,981.24835,25.194199,216.2976,-58.962425,524.6227
5.615341,-1.1111305,-4.876118,94.64073,325.80334,72.84557,-417.0,-97.0,534.0,1175580000.0,NoFix,12,0,0.0,0.0,0,0.0,0.0,0,-125.04841,-62.159008,-14.725117,981.24835,25.194199,152.52367,-37.239494,552.653
7.6493526,-0.22957242,-4.843978,63.35073,362.44833,-10.174427,-376.0,-101.0,543.0,1176882400.0,NoFix,12,0,0.0,0.0,0,0.0,0.0,0,-133.0406,-56.869835,-5.643236,981.24835,25.194199,78.13064,-44.545288,569.7677
8.641107,-1.3544773,-6.230595,8.820729,395.73334,-95.294426,-330.0,-95.0,543.0,1178184800.0,NoFix,12,0,0.0,0.0,0,0.0,0.0,0,-141.7043,-51.21041,2.8416486,981.24835,25.194199,-5.679989,-31.683895,569.04047
8.962507,-1.5610924,-7.777913,-70.10427,402.38333,-170.50943,-293.0,-101.0,535.0,1179487200.0,NoFix,12,0,0.0,0.0,0,0.0,0.0,0,-150.96933,-45.574726,10.9137745,981.24945,25.205818,-72.91628,-42.221695,553.5539
9.504298,-0.52801657,-5.785225,-111.82427,373.08835,-188.04443,-248.0,-121.0,530.0,1180789600.0,NoFix,12,0,0.0,0.0,0,0.0,0.0,0,-159.10036,-40.038677,17.633501,981.24945,25.205818,-154.34517,-80.1954,544.415
10.179241,-0.022957241,-2.28195,-78.78427,372.21335,-192.52443,-220.0,-135.0,513.0,1182092000.0,NoFix,12,0,0.0,0.0,0,0.0,0.0,0,-165.44725,-33.756023,22.123411,981.24945,25.205818,-205.111,-106.233154,512.058
10.422588,0.091828965,-1.0468502,-35.76927,395.03336,-198.15942,-183.0,-143.0,493.0,1183394400.0,NoFix,12,0,0.0,0.0,0,0.0,0.0,0,-170.50925,-26.557425,24.71542,981.24945,25.205818,-272.41736,-120.14078,473.55853
11.3822,1.455489,-0.56933963,-59.67427,408.01834,-196.82942,-150.0,-161.0,469.0,1184696800.0,NoFix,12,0,0.0,0.0,0,0.0,0.0,0,-175.13136,-19.0091,27.006144,981.24945,25.205818,-332.25192,-153.58907,427.85995
13.687107,3.902731,0.6565771,-109.68927,426.14835,-232.42442,-124.0,-180.0,438.0,1185999200.0,NoFix,12,0,0.0,0.0,0,0.0,0.0,0,179.80148,-11.006221,29.523094,981.25665,25.205818,-379.3989,-188.84056,368.7978
16.61186,5.574018,1.2626483,-75.319275,460.83334,-312.85443,-112.0,-201.0,399.0,1187301600.0,NoFix,12,0,0.0,0.0,0,0.0,0.0,0,173.74228,-2.1896358,30.485954,981.25665,25.205818,-401.11234,-227.97676,294.56125
17.93879,5.1561966,0.21120661,-64.85427,492.85834,-419.49942,-105.0,-229.0,379.0,1188604000.0,NoFix,12,0,0.0,0.0,0,0.0,0.0,0,164.58275,7.100365,31.144485,981.25665,25.205818,-413.38116,-281.85434,257.2822
16.685324,3.3104343,0.8264607,-131.59927,488.44833,-457.78943,-114.0,-266.0,328.0,1189906400.0,NoFix,12,0,0.0,0.0,0,0.0,0.0,0,157.13313,15.312915,32.3458,981.25665,25.205818,-396.63837,-352.33932,160.88702
14.541118,2.355413,2.9936244,-176.74927,496.88333,-424.36444,-126.0,-302.0,281.0,1191208700.0,NoFix,12,0,0.0,0.0,0,0.0,0.0,0,151.80614,24.071218,34.229156,981.25665,25.205818,-374.42337,-421.1172,72.17667
12.300489,3.4940922,3.8476338,-169.81927,490.72336,-365.77444,-159.0,-329.0,239.0,1192511100.0,NoFix,12,0,0.0,0.0,0,0.0,0.0,0,146.7584,31.957346,35.79626,981.2573,25.212067,-314.17435,-472.9521,-7.118828
10.46391,6.0974436,4.150669,-163.27428,451.83835,-305.74942,-188.0,-339.0,195.0,1193813500.0,NoFix,12,0,0.0,0.0,0,0.0,0.0,0,140.37712,37.90277,35.976307,981.2573,25.212067,-261.6204,-491.22556,-91.09283
9.077293,7.8330107,5.151605,-139.15927,392.86334,-289.57944,-226.0,-351.0,173.0,1195115900.0,NoFix,12,0,0.0,0.0,0,0.0,0.0,0,132.63992,42.152252,34.720924,981.2573,25.212067,-192.43451,-514.6576,-132.5258
7.0524645,6.919313,5.9321513,-64.64427,319.71335,-282.75443,-260.0,-352.0,159.0,1196418300.0,NoFix,12,0,0.0,0.0,0,0.0,0.0,0,124.856094,44.72676,32.58926,981.2573,25.212067,-130.70497,-516.7713,-159.10423
5.00927,5.702579,5.2663913,-8.364271,218.73833,-259.89944,-296.0,-364.0,160.0,1197720700.0,NoFix,12,0,0.0,0.0,0,0.0,0.0,0,118.414215,45.270775,31.392101,981.2573,25.212067,-64.93244,-541.2231,-156.27081
3.0441303,5.1332393,4.5776744,-6.264271,121.613335,-251.11443,-328.0,-359.0,155.0,1199023100.0,NoFix,12,0,0.0,0.0,0,0.0,0.0,0,112.55942,45.009052,31.733229,981.25946,25.212067,-6.8940063,-531.92786,-165.8178
0.6152541,3.9302797,5.3811774,-16.064272,65.12333,-245.44443,-349.0,-363.0,156.0,1200325500.0,NoFix,12,0,0.0,0.0,0,0.0,0.0,0,105.09075,47.18513,30.677666,981.25946,25.212067,31.406786,-540.3211,-163.50185
-1.2534654,2.8742468,7.1121535,-4.584271,52.768333,-240.50943,-370.0,-359.0,152.0,1201627900.0,NoFix,12,0,0.0,0.0,0,0.0,0.0,0,95.62554,51.129787,26.93773,981.25946,25.212067,69.47059,-532.77673,-171.18433
-1.9789141,1.7309761,8.14982,20.160728,68.34333,-247.36943,-390.0,-351.0,161.0,1202930300.0,NoFix,12,0,0.0,0.0,0,0.0,0.0,0,84.96892,55.063473,20.653395,981.25946,25.212067,105.74827,-517.959,-154.03093
-2.8053749,1.023893,7.6126213,54.600727,68.51833,-226.36943,-412.0,-348.0,168.0,1204232700.0,NoFix,12,0,0.0,0.0,0,0.0,0.0,0,73.0055,57.516468,12.148488,981.25946,25.212067,145.76184,-512.91156,-140.47705
-2.580394,2.038603,7.240714,61.705727,10.803332,-208.20442,-435.0,-339.0,172.0,1205535100.0,NoFix,12,0,0.0,0.0,0,0.0,0.0,0,65.18679,58.224014,7.3154974,981.26025,25.220566,187.4239,-495.96927,-132.96815
-2.148798,3.3012514,8.829355,93.485725,-45.616665,-243.27443,-458.0,-335.0,176.0,1206837500.0,NoFix,12,0,0.0,0.0,0,0.0,0.0,0,62.117718,58.398823,7.9009156,981.26025,25.220566,229.20358,-488.84305,-125.22731
-1.9513655,2.989033,9.844066,151.58572,-63.221664,-226.05443,-478.0,-320.0,186.0,1208139900.0,NoFix,12,0,0.0,0.0,0,0.0,0.0,0,61.201046,58.48698,10.857153,981.26025,25.220566,265.32635,-460.3292,-106.47313
-1.8824939,2.3829618,7.95698,166.67073,-81.14167,-196.37444,-492.0,-318.0,195.0,1209442300.0,NoFix,12,0,0.0,0.0,0,0.0,0.0,0,61.033215,58.361546,14.1033125,981.26025,25.220566,290.8318,-457.14957,-89.100006
-3.5905125,2.5023394,5.702579,118.40573,-42.571667,-167.53442,-509.0,-308.0,204.0,1210744700.0,NoFix,12,0,0.0,0.0,0,0.0,0.0,0,56.157574,56.407593,12.536882,981.26025,25.220566,321.60568,-438.3348,-72.068665
-4.5409427,2.6951802,4.8485694,106.78573,-15.061667,-175.93443,-521.0,-297.0,209.0,1212047100.0,NoFix,12,0,0.0,0.0,0,0.0,0.0,0,49.9679,53.240158,9.77762,981.26025,25.220566,343.22253,-417.2537,-62.834393
-3.64561,4.4399304,5.335263,188.44073,-85.79667,-241.59444,-540.0,-285.0,222.0,1213349400.0,NoFix,12,0,0.0,0.0,0,0.0,0.0,0,49.985992,49.99499,14.465085,981.26025,25.220566,377.62625,-394.74512,-38.1744
-0.6198455,4.3389187,7.3279514,358.22574,-168.43167,-258.21942,-562.0,-263.0,236.0,1214651800.0,NoFix,12,0,0.0,0.0,0,0.0,0.0,0,56.57928,48.538277,27.028936,981.26025,25.220566,417.2612,-352.72137,-12.023487
-2.787009,2.3737788,6.060712,441.98074,-217.99167,-279.39444,-577.0,-235.0,243.0,1215954200.0,NoFix,12,0,0.0,0.0,0,0.0,0.0,0,57.810432,45.7913,37.143303,981.26025,25.220566,443.9543,-298.42902,0.3024931
-9.60531,2.5069308,5.0230446,28.210728,17.103333,-282.50943,-587.0,-217.0,249.0,1217256600.0,NoFix,12,0,0.0,0.0,0,0.0,0.0,0,45.122845,43.380844,31.323181,981.26025,25.220566,461.77847,-263.60474,11.118034
-9.683365,3.5124578,7.1947994,-15.084271,-43.93667,-154.72443,-596.0,-206.0,241.0,1218559000.0,NoFix,12,0,0.0,0.0,0,0.0,0.0,0,38.391754,43.17554,27.719713,981.2522,25.220566,477.81177,-241.8501,-4.7081375
-6.267327,4.3021874,7.7549562,31.150728,-97.69667,-118.53443,-601.0,-200.0,233.0,1219861400.0,NoFix,12,0,0.0,0.0,0,0.0,0.0,0,37.125305,44.596012,28.0414,981.2522,25.220566,486.68704,-229.8174,-20.34143
-5.0873246,4.7062345,7.7090416,55.68573,-142.18167,-101.90943,-607.0,-184.0,224.0,1221163800.0,NoFix,12,0,0.0,0.0,0,0.0,0.0,0,38.53433,46.54666,31.212767,981.2522,25.220566,497.13623,-198.12971,-38.35427
-5.0689588,5.9459257,6.2443695,100.06573,-215.12167,-137.29443,-609.0,-183.0,214.0,1222466200.0,NoFix,12,0,0.0,0.0,0,0.0,0.0,0,42.081104,47.178593,37.457024,981.2522,25.220566,500.6529,-195.74971,-57.63587
-5.252617,6.267327,4.69246,83.720726,-254.39168,-156.71944,-609.0,-166.0,187.0,1223768600.0,NoFix,12,0,0.0,0.0,0,0.0,0.0,0,45.284737,46.860954,44.926373,981.2522,25.220566,499.9895,-161.12279,-110.412186
-3.9670112,4.926624,4.779698,-13.684271,-234.16168,-102.18943,-615.0,-159.0,167.0,1225071000.0,NoFix,12,0,0.0,0.0,0,0.0,0.0,0,47.6331,48.467964,50.34897,981.2537,25.236732,510.54306,-146.59378,-149.18779
-1.64833,3.778762,8.567643,11.760729,-309.58667,-142.89442,-605.0,-149.0,137.0,1226373400.0,NoFix,12,0,0.0,0.0,0,0.0,0.0,0,52.692654,54.342545,59.815414,981.2537,25.236732,491.826,-125.33493,-207.51343
-2.9155695,2.4610164,12.952476,89.180725,-325.58167,-191.40443,-601.0,-132.0,111.0,1227675800.0,NoFix,12,0,0.0,0.0,0,0.0,0.0,0,57.22857,59.299446,70.3033,981.2537,25.236732,483.89673,-90.66029,-258.40332
-4.586857,2.6814058,12.9616585,180.53073,-376.12167,-211.66943,-583.0,-122.0,82.0,1228978200.0,NoFix,12,0,0.0,0.0,0,0.0,0.0,0,63.784298,61.431953,83.42428,981.2537,25.236732,450.6382,-69.25963,-314.88156
-4.4582963,3.0854533,10.610837,243.07573,-439.89166,-252.37444,-554.0,-114.0,55.0,1230280600.0,NoFix,12,0,0.0,0.0,0,0.0,0.0,0,71.82693,61.12937,99.23699,981.2537,25.236732,397.4384,-51.61939,-367.52344
-4.5088024,3.0028071,8.636515,184.48573,-408.11166,-151.22443,-535.0,-113.0,36.0,1231583000.0,NoFix,12,0,0.0,0.0,0,0.0,0.0,0,77.69148,60.34163,110.656334,981.252,25.236732,362.6703,-48.327927,-404.33923
-1.9192253,3.2323794,11.607182,139.47572,-376.82166,-60.39943,-504.0,-122.0,18.0,1232885400.0,NoFix,12,0,0.0,0.0,0,0.0,0.0,0,87.677284,60.586452,123.528694,981.252,25.236732,306.32037,-64.43268,-438.88287
1.5794582,5.8357306,11.432707,245.10573,-331.14667,-113.14443,-478.0,-141.0,4.0,1234187800.0,NoFix,12,0,0.0,0.0,0,0.0,0.0,0,97.27611,56.20972,135.6373,981.252,25.236732,259.33926,-100.47269,-465.21198
4.4491134,9.095659,7.7182245,271.11075,-301.22165,-181.84943,-467.0,-150.0,-5.0,1235490000.0,NoFix,12,0,0.0,0.0,0,0.0,0.0,0,103.04416,47.9653,144.67662,981.252,25.236732,239.45523,-117.46536,-482.23114
5.1470137,8.5263195,7.814645,250.49573,-237.94168,-263.18942,-451.0,-163.0,-8.0,1236792400.0,NoFix,12,0,0.0,0.0,0,0.0,0.0,0,104.16953,41.40027,150.217,981.2519,25.234749,210.62933,-142.47157,-487.56073
2.5574367,7.0432816,8.0534,203.14073,-130.38667,-268.64944,-449.0,-167.0,-3.0,1238094800.0,NoFix,12,0,0.0,0.0,0,0.0,0.0,0,101.28575,38.150616,151.53941,981.2519,25.234749,207.13443,-150.5093,-477.76736
-2.0569687,6.423436,7.167251,174.26573,-53.386665,-228.85443,-451.0,-176.0,3.0,1239397200.0,NoFix,12,0,0.0,0.0,0,0.0,0.0,0,94.12429,36.42962,148.85652,981.2519,25.234749,211.04251,-168.50352,-465.77756
-2.9706671,6.653009,5.8862367,174.51073,-92.37666,-142.96443,-446.0,-178.0,-1.0,1240699600.0,NoFix,12,0,0.0,0.0,0,0.0,0.0,0,89.041145,33.95018,148.22192,981.2519,25.234749,201.95601,-172.1268,-473.4355
0.840235,7.3968234,6.2214127,202.40573,-185.37167,-132.88443,-440.0,-190.0,-3.0,1242002000.0,NoFix,12,0,0.0,0.0,0,0.0,0.0,0,89.741646,31.189558,152.56708,981.2519,25.234749,191.30537,-195.45142,-476.7884
3.6410186,7.5024266,8.113089,306.11075,-312.31665,-221.78442,-421.0,-212.0,5.0,1243304400.0,NoFix,12,0,0.0,0.0,0,0.0,0.0,0,91.75473,27.631649,160.0183,981.2519,25.234749,157.34184,-238.56616,-460.5496
1.4922208,7.29122,4.3802414,355.14575,-415.35666,-381.97943,-404.0,-226.0,8.0,1244606800.0,NoFix,12,0,0.0,0.0,0,0.0,0.0,0,89.50858,21.591984,168.22278,981.2519,25.234749,126.77914,-265.79034,-454.2897
-1.8870853,7.796279,1.6437385,199.15073,-357.43167,-474.13443,-403.0,-231.0,8.0,1245909200.0,NoFix,12,0,0.0,0.0,0,0.0,0.0,0,81.514595,17.214705,174.03783,981.2519,25.234749,125.07786,-275.58286,-454.06754
-3.01199,7.787096,4.1736264,133.31573,-365.06165,-428.49442,-396.0,-229.0,6.0,1247211600.0,NoFix,12,0,0.0,0.0,0,0.0,0.0,0,74.34773,17.525505,-179.51144,981.2519,25.234749,112.278984,-271.399,-458.0796
-1.9789141,7.0249157,3.7833536,98.42073,-430.89667,-345.12442,-378.0,-233.0,2.0,1248514000.0,NoFix,12,0,0.0,0.0,0,0.0,0.0,0,70.76156,19.485025,-171.03616,981.2519,25.234749,79.59381,-278.64288,-465.7716
-0.23875532,3.7741706,0.20202371,55.300728,-347.84167,-338.05444,-370.0,-232.0,3.0,1249816400.0,NoFix,12,0,0.0,0.0,0,0.0,0.0,0,68.97347,18.675903,-164.16151,981.2525,25.241829,65.02883,-276.53787,-463.9706
-2.0202372,1.6437385,0.6979001,-0.909271,-229.19168,-418.55444,-374.0,-223.0,-6.0,1251118800.0,NoFix,12,0,0.0,0.0,0,0.0,0.0,0,58.868523,20.233574,-162.50574,981.2525,25.241829,72.00488,-258.54562,-481.67825
-5.188337,1.3590688,4.3251443,26.950727,-289.81165,-472.38443,-366.0,-220.0,-7.0,1252421200.0,NoFix,12,0,0.0,0.0,0,0.0,0.0,0,47.62881,25.83899,-159.4816,981.2525,25.241829,57.373337,-252.42142,-483.82098
-7.249897,0.73004025,4.7842894,23.135729,-308.01166,-452.53943,-369.0,-218.0,-5.0,1253723600.0,NoFix,12,0,0.0,0.0,0,0.0,0.0,0,36.819225,31.203035,-156.5991,981.2525,25.241829,62.802513,-248.65831,-480.0335
-8.852312,1.3085628,5.1561966,4.620729,-294.99167,-393.98444,-360.0,-218.0,-9.0,1255026000.0,NoFix,12,0,0.0,0.0,0,0.0,0.0,0,28.000061,35.809307,-153.99101,981.2525,25.241829,46.393356,-248.26108,-487.82324
-9.095659,0.96879566,6.290284,0.49072897,-256.73666,-311.76944,-347.0,-209.0,-10.0,1256328400.0,NoFix,12,0,0.0,0.0,0,0.0,0.0,0,21.045954,40.060276,-152.29015,981.24524,25.241829,22.526155,-230.23997,-490.29303
-7.7228165,0.43159616,8.067174,46.550728,-248.75667,-267.87943,-343.0,-213.0,-12.0,1257630800.0,NoFix,12,0,0.0,0.0,0,0.0,0.0,0,16.162739,44.954746,-149.50252,981.24524,25.241829,15.325129,-237.90596,-493.9975
-6.882581,0.9642042,8.264606,114.97573,-235.21167,-260.14444,-336.0,-220.0,-10.0,1258933200.0,NoFix,12,0,0.0,0.0,0,0.0,0.0,0,13.850311,49.180695,-144.34792,981.24524,25.241829,2.777006,-251.5765,-489.89017
-6.405071,0.9917528,6.919313,114.17073,-236.15668,-234.76942,-326.0,-227.0,-2.0,1260235500.0,NoFix,12,0,0.0,0.0,0,0.0,0.0,0,12.627656,52.602062,-138.96967,981.24524,25.241829,-15.169265,-265.4548,-474.2593
-5.2158856,1.4508977,6.694332,80.88573,-268.70667,-213.76942,-319.0,-243.0,-2.0,1261537900.0,NoFix,12,0,0.0,0.0,0,0.0,0.0,0,12.697628,56.848255,-133.19365,981.24524,25.241829,-27.525188,-296.7015,-473.5855
-3.4619522,2.5758026,7.268263,67.13073,-293.55667,-247.64943,-300.0,-245.0,10.0,1262840300.0,NoFix,12,0,0.0,0.0,0,0.0,0.0,0,15.30152,62.25625,-125.081154,981.245,25.23928,-61.92016,-300.73758,-450.57245
-3.3058429,2.8512895,7.1213365,74.165726,-332.96667,-321.04443,-296.0,-250.0,17.0,1264142700.0,NoFix,12,0,0.0,0.0,0,0.0,0.0,0,19.755627,67.43789,-113.80008,981.245,25.23928,-69.00983,-310.78424,-436.90128
-3.1864653,2.171755,8.315113,-36.64427,-320.26166,-293.07944,-286.0,-245.0,9.0,1265445100.0,NoFix,12,0,0.0,0.0,0,0.0,0.0,0,20.373652,72.94636,-107.82817,981.245,25.23928,-87.39455,-300.36185,-452.63455
-2.2681756,0.44996193,10.298619,-128.65927,-187.82167,-167.91943,-281.0,-239.0,6.0,1266747500.0,NoFix,12,0,0.0,0.0,0,0.0,0.0,0,11.292021,77.4044,-114.24444,981.245,25.23928,-96.65948,-288.3258,-458.73807
-1.6070069,-0.5831139,10.867958,-115.25427,-133.53668,-132.32443,-284.0,-238.0,3.0,1268049900.0,NoFix,12,0,0.0,0.0,0,0.0,0.0,0,-4.167686,80.50162,-127.16804,981.245,25.23928,-91.25558,-286.29404,-464.53162
-1.4371234,-0.60147977,10.23893,-106.39927,-75.43667,-100.96443,-278.0,-234.0,2.0,1269352300.0,NoFix,12,0,0.0,0.0,0,0.0,0.0,0,-21.936584,81.531044,-142.95535,981.24713,25.23928,-102.27284,-278.25366,-466.70117
-0.5601567,-0.38109022,9.06811,-113.749275,-39.56167,-85.669426,-282.0,-224.0,-9.0,1270654700.0,NoFix,12,0,0.0,0.0,0,0.0,0.0,0,-39.055195,81.58984,-158.309,981.24713,25.23928,-95.33983,-258.20544,-488.30618
-0.8494179,-1.2305082,8.604375,-129.11427,-18.106667,-96.169426,-283.0,-211.0,-12.0,1271957100.0,NoFix,12,0,0.0,0.0,0,0.0,0.0,0,-53.985588,79.94378,-171.3531,981.24713,25.23928,-93.856026,-232.56807,-494.67584
-2.5528452,-2.713546,8.7513,-131.56427,-24.161667,-85.77443,-284.0,-198.0,-18.0,1273259500.0,NoFix,12,0,0.0,0.0,0,0.0,0.0,0,-61.49376,76.73046,-177.42499,981.24713,25.23928,-92.401505,-206.79155,-506.8219
-1.515178,-3.0349474,9.15994,-129.14928,-27.486668,-59.17443,-288.0,-188.0,-21.0,1274561900.0,NoFix,12,0,0.0,0.0,0,0.0,0.0,0,-68.24908,74.02433,176.82297,981.24713,25.23928,-85.39042,-187.1144,-513.02313
0.6887173,-2.7273204,9.8716135,-133.48927,2.2983327,-59.874428,-292.0,-178.0,-27.0,1275864300.0,NoFix,12,0,0.0,0.0,0,0.0,0.0,0,-75.24436,71.969666,171.23553,981.24756,25.244102,-78.4086,-167.29807,-525.00073
0.087237515,-3.163508,9.839474,-138.56427,55.498333,-85.35443,-297.0,-170.0,-31.0,1277166700.0,NoFix,12,0,0.0,0.0,0,0.0,0.0,0,-77.35725,69.367325,171.2883,981.24756,25.244102,-69.541336,-151.52448,-533.0249
-1.9513655,-4.6970515,9.109434,-140.10428,69.708336,-88.11943,-307.0,-154.0,-37.0,1278469100.0,NoFix,12,0,0.0,0.0,0,0.0,0.0,0,-76.07194,65.701675,174.65076,981.24756,25.244102,-51.787262,-120.070045,-545.2223
-2.079926,-5.532695,9.1966715,-125.15927,55.708332,-71.56443,-315.0,-140.0,-37.0,1279771500.0,NoFix,12,0,0.0,0.0,0,0.0,0.0,0,-75.636765,62.358273,176.69405,981.24756,25.244102,-37.56539,-92.773285,-545.7936
-0.95502126,-4.9358068,9.7292795,-116.234276,81.67834,-57.45943,-331.0,-130.0,-39.0,1281073900.0,NoFix,12,0,0.0,0.0,0,0.0,0.0,0,-75.38628,59.97396,178.79227,981.24756,25.244102,-8.717725,-73.4248,-549.9522
-1.4371234,-4.6878686,9.06811,-113.46927,132.14833,-62.14943,-349.0,-118.0,-39.0,1282376300.0,NoFix,12,0,0.0,0.0,0,0.0,0.0,0,-73.39018,57.502384,-176.88802,981.2556,25.244102,23.740215,-50.289703,-550.3331
-2.989033,-5.2618,7.7090416,-118.47427,154.30333,-60.67943,-356.0,-116.0,-40.0,1283678700.0,NoFix,12,0,0.0,0.0,0,0.0,0.0,0,-70.12339,54.0368,-171.72606,981.2556,25.244102,36.415714,-46.48157,-552.2831
-2.929344,-5.6658473,7.2361226,-122.88427,156.99832,-54.764427,-375.0,-98.0,-43.0,1284981100.0,NoFix,12,0,0.0,0.0,0,0.0,0.0,0,-67.9048,50.37378,-167.7246,981.2556,25.244102,70.52213,-11.451586,-558.709
-1.5748668,-5.5143294,7.3555,-125.71927,184.40332,-47.589428,-396.0,-83.0,-36.0,1286283400.0,NoFix,12,0,0.0,0.0,0,0.0,0.0,0,-66.829,47.14918,-164.39516,981.2556,25.244102,108.43452,17.177885,-545.72144
-1.5473181,-5.2296596,6.175498,-130.68927,247.08833,-44.264427,-418.0,-72.0,-29.0,1287585800.0,NoFix,12,0,0.0,0.0,0,0.0,0.0,0,-65.105896,43.29287,-159.8408,981.2556,25.244102,148.25992,37.930984,-532.5386
-4.2930045,-5.6566644,3.5491896,-172.75928,312.74835,-21.304426,-450.0,-56.0,-20.0,1288888200.0,NoFix,12,0,0.0,0.0,0,0.0,0.0,0,-61.077953,36.274895,-153.54724,981.2556,25.244102,206.17621,68.172134,-515.6392
-6.7586117,-7.984529,2.0661516,-218.99428,323.35333,3.3705733,-487.0,-31.0,-4.0,1290190600.0,NoFix,12,0,0.0,0.0,0,0.0,0.0,0,-57.876274,27.432344,-148.7681,981.2556,25.244102,273.0436,115.63988,-485.6301
-7.4794693,-9.091068,2.6584485,-227.18428,302.59833,37.60057,-516.0,-16.0,22.0,1291493000.0,NoFix,12,0,0.0,0.0,0,0.0,0.0,0,-55.433903,19.502405,-145.56053,981.2556,25.244102,325.69263,143.19987,-435.98047
-7.4427376,-8.108498,3.0257645,-185.07927,324.78833,72.00557,-538.0,-12.0,41.0,1292795400.0,NoFix,12,0,0.0,0.0,0,0.0,0.0,0,-52.53307,12.877994,-142.25867,981.2556,25.244102,365.7998,149.6539,-399.3673
-7.171842,-6.87799,1.3452944,-152.14427,387.15836,137.63057,-575.0,-9.0,77.0,1294097800.0,NoFix,12,0,0.0,0.0,0,0.0,0.0,0,-48.581436,5.7312236,-137.88069,981.2556,25.244102,433.37994,153.00333,-329.82828
-6.8963556,-5.2572083,-1.7631161,-169.71428,457.43835,185.12556,-604.0,-18.0,123.0,1295400200.0,NoFix,12,0,0.0,0.0,0,0.0,0.0,0,-44.10003,-3.9200306,-133.2639,981.2556,25.244102,486.78873,132.5186,-240.55603
-7.6906757,-4.1736264,-4.632771,-210.38428,456.24835,171.26558,-632.0,-23.0,160.0,1296702600.0,NoFix,12,0,0.0,0.0,0,0.0,0.0,0,-40.10611,-14.925274,-130.41176,981.2571,25.26027,538.1967,120.32768,-168.8083
-9.173714,-4.467479,-5.4684153,-227.00928,389.92334,149.49557,-637.0,-29.0,195.0,1298005000.0,NoFix,12,0,0.0,0.0,0,0.0,0.0,0,-36.546818,-24.359291,-129.89148,981.2571,25.26027,547.7739,106.80738,-101.08962
-9.380329,-5.188337,-5.036819,-228.09427,377.98834,181.73058,-639.0,-48.0,236.0,1299307400.0,NoFix,12,0,0.0,0.0,0,0.0,0.0,0,-32.765774,-32.519924,-129.88681,981.2571,25.26027,552.25885,67.55761,-21.244394
-8.223284,-4.5684915,-6.115809,-256.51425,449.49335,253.20058,-645.0,-67.0,266.0,1300609800.0,NoFix,12,0,0.0,0.0,0,0.0,0.0,0,-27.82787,-42.054455,-130.33069,981.2571,25.26027,563.912,28.72396,37.45966
-7.7457733,-2.7916005,-9.462975,-341.73926,493.20834,282.46057,-634.0,-97.0,311.0,1301912200.0,NoFix,12,0,0.0,0.0,0,0.0,0.0,0,-19.017153,-53.679043,-135.11417,981.2571,25.26027,545.049,-32.000847,125.39013
-8.549277,-2.272767,-11.547493,-396.96927,406.96835,244.06557,-612.0,-129.0,340.0,1303214600.0,NoFix,12,0,0.0,0.0,0,0.0,0.0,0,-5.3468018,-61.999275,-146.60376,981.25586,25.26027,506.06894,-95.65118,182.49843
-8.090132,-2.4839735,-11.373017,-407.11926,365.94833,242.59557,-590.0,-167.0,358.0,1304517000.0,NoFix,12,0,0.0,0.0,0,0.0,0.0,0,11.590585,-66.90112,-161.43506,981.25586,25.26027,467.12274,-170.57056,218.7048
-6.2627354,-1.1524535,-11.451073,-417.72424,371.33835,246.86557,-561.0,-201.0,372.0,1305819400.0,NoFix,12,0,0.0,0.0,0,0.0,0.0,0,34.523033,-69.75804,178.31485,981.25586,25.26027,415.31104,-237.2869,246.95544
-4.3802414,0.18824938,-11.115896,-443.44925,417.36334,274.93558,-525.0,-250.0,374.0,1307121800.0,NoFix,12,0,0.0,0.0,0,0.0,0.0,0,63.372425,-69.46996,153.7397,981.25586,25.26027,351.0028,-332.73013,252.72784
-2.5161138,1.4141661,-10.381265,-473.82925,495.76334,326.9456,-471.0,-299.0,367.0,1308424200.0,NoFix,12,0,0.0,0.0,0,0.0,0.0,0,91.10201,-64.82207,132.34132,981.25586,25.26027,253.86649,-427.33243,240.99529
-1.432532,2.7824175,-8.613558,-494.09427,500.83835,314.45056,-425.0,-324.0,349.0,1309726600.0,NoFix,12,0,0.0,0.0,0,0.0,0.0,0,106.92873,-56.26863,122.4463,981.25616,25.2631,170.60944,-474.49573,207.0474
-0.89992386,3.8292677,-6.464759,-385.13925,408.47333,234.33557,-384.0,-351.0,329.0,1311029000.0,NoFix,12,0,0.0,0.0,0,0.0,0.0,0,112.74977,-48.51617,121.01838,981.25616,25.2631,96.47444,-525.6102,169.39012
1.0055273,5.574018,-6.0285716,-283.63925,323.94833,183.06058,-358.0,-359.0,304.0,1312331400.0,NoFix,12,0,0.0,0.0,0,0.0,0.0,0,117.02257,-41.413742,120.44288,981.25616,25.2631,49.1272,-539.5447,121.3706
3.5308237,6.496899,-5.335263,-247.51927,306.76334,163.32057,-338.0,-365.0,284.0,1313633800.0,NoFix,12,0,0.0,0.0,0,0.0,0.0,0,122.166,-33.953472,118.83802,981.25616,25.2631,12.695125,-549.92584,82.94423
4.66032,5.661256,-3.3196173,-224.97928,343.51334,168.64058,-313.0,-370.0,259.0,1314936000.0,NoFix,12,0,0.0,0.0,0,0.0,0.0,0,128.00452,-25.556744,116.605995,981.25616,25.2631,-32.903786,-557.99414,34.79531
5.119465,5.316897,-1.1891851,-245.06927,372.24835,152.15558,-301.0,-368.0,250.0,1316238500.0,NoFix,12,0,0.0,0.0,0,0.0,0.0,0,132.5677,-15.175932,113.87574,981.2548,25.2631,-54.865486,-553.36804,17.256168
5.711762,4.903667,0.15610924,-254.13428,241.24333,44.53057,-294.0,-370.0,223.0,1317540900.0,NoFix,12,0,0.0,0.0,0,0.0,0.0,0,134.52403,-6.190785,113.10844,981.2548,25.2631,-67.814255,-555.8774,-34.70718
7.0432816,4.8807096,0.624437,-163.20427,68.34333,-36.07443,-302.0,-367.0,199.0,1318843300.0,NoFix,12,0,0.0,0.0,0,0.0,0.0,0,135.61522,-1.5414095,113.29272,981.2548,25.2631,-53.56784,-549.06274,-80.97963
7.9340224,5.5235124,0.85860085,-94.14927,21.163334,-38.31443,-301.0,-366.0,194.0,1320145700.0,NoFix,12,0,0.0,0.0,0,0.0,0.0,0,136.52452,1.0080171,112.81782,981.2548,25.2631,-55.459064,-546.8441,-90.66314
6.928496,5.417909,1.4784464,-126.139275,54.02833,-23.614428,-310.0,-364.0,180.0,1321448100.0,NoFix,12,0,0.0,0.0,0,0.0,0.0,0,137.04985,4.675781,112.566,981.2548,25.2631,-39.272633,-542.4801,-117.62471
5.0505934,5.4821897,1.8411708,-110.70427,34.043335,-20.254427,-311.0,-362.0,169.0,1322750500.0,NoFix,12,0,0.0,0.0,0,0.0,0.0,0,136.07765,8.001113,112.22344,981.2556,25.271324,-37.60813,-538.06696,-138.88792
4.513394,6.1617236,2.0202372,-76.22927,-21.676666,-36.214428,-317.0,-364.0,167.0,1324052900.0,NoFix,12,0,0.0,0.0,0,0.0,0.0,0,134.02527,9.827358,111.61529,981.2556,25.271324,-26.667192,-542.04175,-142.58755
6.671375,6.5382223,2.1901207,-47.45927,-60.141666,-89.44943,-324.0,-359.0,165.0,1325355300.0,NoFix,12,0,0.0,0.0,0,0.0,0.0,0,132.92737,10.259667,111.473656,981.2556,25.271324,-14.072019,-532.29755,-146.6021
8.177369,6.556588,0.6979001,-25.724272,-63.256668,-127.63443,-337.0,-359.0,162.0,1326657700.0,NoFix,12,0,0.0,0.0,0,0.0,0.0,0,132.23315,8.798404,111.50315,981.2556,25.271324,9.544426,-532.4643,-152.25165
6.662192,7.020324,-1.1983681,-29.994272,-100.95167,-137.01443,-352.0,-357.0,153.0,1327960000.0,NoFix,12,0,0.0,0.0,0,0.0,0.0,0,130.21951,5.4610643,112.65037,981.2556,25.271324,36.693066,-528.47327,-169.52728
3.6226528,7.3187685,-1.2167338,-69.22927,-195.94168,-176.10944,-357.0,-353.0,145.0,1329262500.0,NoFix,12,0,0.0,0.0,0,0.0,0.0,0,125.0979,2.0912242,116.25432,981.25256,25.271324,45.615406,-520.367,-185.06781
2.6492655,7.60803,-0.27089545,-102.72427,-263.14166,-189.37444,-370.0,-345.0,128.0,1330564900.0,NoFix,12,0,0.0,0.0,0,0.0,0.0,0,119.29728,0.52662694,122.116196,981.25256,25.271324,68.90702,-504.1786,-218.04507
4.618997,8.237058,-0.39486456,-174.01927,-220.09167,-138.97443,-372.0,-341.0,116.0,1331867400.0,NoFix,12,0,0.0,0.0,0,0.0,0.0,0,116.8848,0.9617579,128.04024,981.25256,25.271324,72.33362,-495.81622,-241.31677
7.8330107,9.715505,-1.3636602,-256.89926,-158.42168,-146.46443,-375.0,-326.0,96.0,1333169700.0,NoFix,12,0,0.0,0.0,0,0.0,0.0,0,116.3044,2.666777,133.6407,981.25256,25.271324,77.24226,-465.511,-280.49274
8.0534,9.389512,-0.44077903,-357.59427,-72.041664,-191.68443,-386.0,-305.0,70.0,1334472200.0,NoFix,12,0,0.0,0.0,0,0.0,0.0,0,115.47645,7.135258,138.49055,981.25256,25.271324,96.50243,-423.33633,-331.42172
4.068023,6.3637476,1.5656838,-398.33426,-42.011665,-210.54942,-403.0,-274.0,43.0,1335774500.0,NoFix,12,0,0.0,0.0,0,0.0,0.0,0,113.51972,14.033832,142.82303,981.253,25.275291,126.43099,-361.62436,-384.6815
2.8053749,4.1736264,3.2186053,-411.98425,-70.746666,-195.56943,-410.0,-240.0,18.0,1337076900.0,NoFix,12,0,0.0,0.0,0,0.0,0.0,0,112.84075,23.210405,147.89856,981.253,25.275291,138.11949,-293.88028,-434.32706
4.1828094,3.6410186,4.536351,-403.12927,-118.45167,-254.75443,-417.0,-202.0,-4.0,1338379300.0,NoFix,12,0,0.0,0.0,0,0.0,0.0,0,114.250916,31.744081,154.91725,981.253,25.275291,149.74315,-218.4225,-478.38174
4.2333155,3.7144816,4.752149,-412.96426,-107.46167,-290.80444,-416.0,-149.0,-18.0,1339681700.0,NoFix,12,0,0.0,0.0,0,0.0,0.0,0,116.00414,39.23548,162.88477,981.253,25.275291,146.54085,-113.699425,-507.80643
2.3416386,6.740246,7.897291,-406.31427,-72.986664,-265.98944,-418.0,-101.0,-23.0,1340984000.0,NoFix,12,0,0.0,0.0,0,0.0,0.0,0,114.25792,46.6098,167.84666,981.253,25.275291,149.00067,-19.280434,-519.6407
0.11478621,6.4923077,9.201262,-285.21426,-67.10667,-152.58943,-422.0,-77.0,-27.0,1342286500.0,NoFix,12,0,0.0,0.0,0,0.0,0.0,0,112.089096,52.34676,169.56589,981.25134,25.275291,155.67265,27.928068,-528.4167
0.5234251,2.447242,7.3784575,-233.48427,-96.611664,-48.11443,-397.0,-55.0,-32.0,1343588900.0,NoFix,12,0,0.0,0.0,0,0.0,0.0,0,115.22531,58.349266,174.60255,981.25134,25.275291,109.63378,71.938736,-539.3085
2.6676314,2.3508215,8.448265,-205.37927,-103.121666,-71.91443,-394.0,-34.0,-27.0,1344891300.0,NoFix,12,0,0.0,0.0,0,0.0,0.0,0,122.72844,62.166058,-176.4771,981.25134,25.275291,103.73186,113.00482,-530.68445
3.985377,3.3379831,10.372082,-204.67928,-46.841667,-102.92443,-394.0,-14.0,-25.0,1346193500.0,NoFix,12,0,0.0,0.0,0,0.0,0.0,0,129.15604,64.9364,-168.60197,981.25134,25.275291,103.28088,152.17628,-527.7612
3.4022632,3.36094,11.033251,-187.49428,12.798332,-82.34443,-387.0,-3.0,-21.0,1347496000.0,NoFix,12,0,0.0,0.0,0,0.0,0.0,0,133.26813,67.87567,-163.5845,981.25134,25.275291,90.32885,173.75073,-520.6378
1.8457623,2.731912,9.802743,-148.32927,28.968334,-54.30943,-395.0,14.0,-19.0,1348798300.0,NoFix,12,0,0.0,0.0,0,0.0,0.0,0,135.00253,70.713776,-161.5821,981.2523,25.2855,104.49966,206.84438,-517.4973
1.1203134,2.6722229,9.19208,-142.34427,12.238333,-50.70443,-394.0,26.0,-9.0,1350100700.0,NoFix,12,0,0.0,0.0,0,0.0,0.0,0,136.15582,73.11622,-159.86807,981.2523,25.2855,102.496056,229.9626,-498.80893
1.515178,3.0533133,9.935894,-148.50427,1.0383327,-76.21943,-388.0,34.0,-8.0,1351403100.0,NoFix,12,0,0.0,0.0,0,0.0,0.0,0,138.24586,74.82533,-156.46127,981.2523,25.2855,91.40421,245.76305,-497.31308
2.038603,3.2645197,10.284844,-163.34427,3.1033328,-89.72943,-389.0,56.0,-2.0,1352705500.0,NoFix,12,0,0.0,0.0,0,0.0,0.0,0,141.87338,76.13721,-151.0895,981.2523,25.2855,92.76413,288.6519,-486.7709
1.9513655,2.6722229,10.101187,-163.79927,25.748333,-79.96443,-385.0,73.0,11.0,1354007900.0,NoFix,12,0,0.0,0.0,0,0.0,0.0,0,146.40189,77.765274,-144.88382,981.2523,25.2855,85.215485,321.51758,-462.5673
1.2350996,1.7585247,9.8716135,-144.19928,38.348335,-87.66443,-388.0,84.0,15.0,1355310300.0,NoFix,12,0,0.0,0.0,0,0.0,0.0,0,150.9728,79.85923,-138.72401,981.24976,25.2855,90.45246,342.85678,-455.34634
0.22038952,1.8090307,9.4721575,-140.31427,46.538334,-118.49943,-384.0,97.0,30.0,1356612700.0,NoFix,12,0,0.0,0.0,0,0.0,0.0,0,152.60208,82.355865,-134.72174,981.24976,25.2855,83.01742,367.7769,-427.10623
0.16529214,1.6253726,9.518072,-160.68427,55.673332,-153.21944,-378.0,112.0,33.0,1357915100.0,NoFix,12,0,0.0,0.0,0,0.0,0.0,0,159.76501,84.89596,-124.41851,981.24976,25.2855,71.780426,397.22705,-422.0841
-0.05050593,0.57852244,9.949668,-170.09927,74.81834,-153.46443,-374.0,125.0,47.0,1359217500.0,NoFix,12,0,0.0,0.0,0,0.0,0.0,0,-163.6594,87.31765,-84.730286,981.24976,25.2855,64.33563,422.1935,-395.7695
-0.9412469,0.14692634,9.3344145,-169.22427,51.158333,-106.10943,-365.0,143.0,61.0,1360520000.0,NoFix,12,0,0.0,0.0,0,0.0,0.0,0,-103.24041,86.542595,-21.600168,981.24976,25.2855,47.67871,457.0937,-369.7356
-0.8861495,-0.29844415,8.117681,-184.23927,31.243334,-121.71943,-362.0,156.0,77.0,1361822300.0,NoFix,12,0,0.0,0.0,0,0.0,0.0,0,-85.95438,83.40281,-1.7450681,981.24976,25.2855,42.072342,481.94385,-339.56027
0.23416387,-1.2626483,7.8467855,-177.09927,44.753334,-192.62943,-346.0,167.0,91.0,1363124700.0,NoFix,12,0,0.0,0.0,0,0.0,0.0,0,-87.430786,79.81925,0.9054176,981.24976,25.2855,12.847774,503.26624,-313.27002
1.9789141,-2.3324556,9.15994,-161.24428,76.043335,-223.53442,-342.0,178.0,97.0,1364427100.0,NoFix,12,0,0.0,0.0,0,0.0,0.0,0,-92.85858,76.36467,-0.07057194,981.24976,25.2855,5.3719544,524.67737,-302.26642
2.4610164,-4.270047,10.390448,-133.17427,123.25833,-204.17943,-333.0,181.0,106.0,1365729500.0,NoFix,12,0,0.0,0.0,0,0.0,0.0,0,-93.581055,72.87344,3.1277866,981.24976,25.2855,-10.9809,530.36127,-285.16412
1.2810141,-5.225068,9.577762,-75.80927,160.95332,-170.82443,-320.0,182.0,114.0,1367031900.0,NoFix,12,0,0.0,0.0,0,0.0,0.0,0,-90.089485,70.07055,9.967857,981.24976,25.2855,-34.57207,532.2593,-269.93362
0.38109022,-4.5271683,8.420716,-39.724274,182.72333,-172.78442,-319.0,187.0,111.0,1368334300.0,NoFix,12,0,0.0,0.0,0,0.0,0.0,0,-85.58821,68.15123,17.697227,981.25055,25.294014,-36.537876,542.2379,-275.95172
0.35354152,-4.618997,8.517137,-20.964272,207.32832,-197.10944,-308.0,184.0,115.0,1369636700.0,NoFix,12,0,0.0,0.0,0,0.0,0.0,0,-81.81508,66.55013,25.50468,981.25055,25.294014,-56.436184,536.4216,-268.21802
0.16529214,-4.69246,8.806397,9.730729,241.73332,-216.04443,-308.0,181.0,108.0,1370939100.0,NoFix,12,0,0.0,0.0,0,0.0,0.0,0,-77.56765,65.41726,34.123287,981.25055,25.294014,-56.43393,530.8566,-281.55716
-0.8310522,-4.104755,9.173714,27.580729,284.50336,-231.75943,-298.0,180.0,106.0,1372241500.0,NoFix,12,0,0.0,0.0,0,0.0,0.0,0,-70.9969,64.50779,45.55155,981.25055,25.294014,-74.618935,529.2214,-285.45932
-1.8916768,-4.201175,9.0635195,23.695728,295.07333,-216.42943,-296.0,175.0,98.0,1373544000.0,NoFix,12,0,0.0,0.0,0,0.0,0.0,0,-64.00494,62.663334,57.083626,981.25055,25.294014,-78.21719,519.8235,-300.65076
-2.653857,-4.683277,8.204918,2.2407289,287.96835,-189.02443,-300.0,169.0,97.0,1374846300.0,NoFix,12,0,0.0,0.0,0,0.0,0.0,0,-58.68462,59.44372,66.33127,981.24756,25.294014,-70.8102,507.99646,-302.25888
-3.4160376,-4.554717,7.9294314,-4.094271,292.76334,-181.32443,-295.0,172.0,92.0,1376148700.0,NoFix,12,0,0.0,0.0,0,0.0,0.0,0,-54.350258,55.815567,74.73515,981.24756,25.294014,-80.02408,514.23566,-312.0742
-4.228724,-4.6695027,7.534567,-18.304272,293.53336,-176.94943,-304.0,174.0,92.0,1377451100.0,NoFix,12,0,0.0,0.0,0,0.0,0.0,0,-51.21866,51.638023,81.68472,981.24756,25.294014,-63.70101,517.9504,-312.0791
-4.6878686,-6.060712,6.2948756,-47.49427,251.84833,-142.26443,-308.0,172.0,91.0,1378753500.0,NoFix,12,0,0.0,0.0,0,0.0,0.0,0,-50.503296,46.601246,85.73516,981.24756,25.294014,-56.38812,513.9762,-313.87277
-5.0000873,-7.2177567,4.8807096,-47.564274,204.91333,-95.294426,-307.0,177.0,96.0,1380055900.0,NoFix,12,0,0.0,0.0,0,0.0,0.0,0,-50.69046,41.489574,88.24378,981.24756,25.294014,-58.27584,523.5839,-304.48712
-5.9229684,-7.135111,3.7833536,-22.154272,163.29832,-64.59943,-311.0,172.0,94.0,1381358300.0,NoFix,12,0,0.0,0.0,0,0.0,0.0,0,-50.16693,37.006958,91.16113,981.2486,25.30394,-50.902134,513.7665,-308.06708
-6.685149,-6.8274837,3.3196173,-13.299271,109.958336,-40.589428,-315.0,174.0,93.0,1382660600.0,NoFix,12,0,0.0,0.0,0,0.0,0.0,0,-49.32805,33.44286,93.73214,981.2486,25.30394,-43.68333,517.6452,-310.04626
-6.8183007,-6.7264714,3.4803178,-3.7442708,56.443333,-21.059427,-323.0,172.0,97.0,1383963000.0,NoFix,12,0,0.0,0.0,0,0.0,0.0,0,-48.642258,31.14922,95.51843,981.2486,25.30394,-29.046034,513.3451,-302.17355
-6.542814,-6.6300516,3.810902,4.935729,11.188333,-2.3344269,-316.0,173.0,96.0,1385265400.0,NoFix,12,0,0.0,0.0,0,0.0,0.0,0,-48.155594,30.047155,96.7068,981.2486,25.30394,-41.811626,515.5193,-304.21375
-6.0285716,-6.3316073,4.462888,11.1657295,-15.516667,11.525573,-313.0,176.0,90.0,1386567800.0,NoFix,12,0,0.0,0.0,0,0.0,0.0,0,-47.782585,30.038757,97.55424,981.2486,25.30394,-47.39747,521.7578,-315.935
-5.8862367,-4.9817214,5.9137855,1.5057291,-8.621668,0.99057317,-324.0,169.0,88.0,1421732600.0,NoFix,12,0,0.0,0.0,0,0.0,0.0,0,-40.84779,37.566387,100.666695,981.2482,25.317825,-27.244392,507.84933,-319.3539
-5.633707,-5.1378307,5.9734745,3.1507292,-5.1916676,0.95557314,-320.0,168.0,91.0,1423035000.0,NoFix,12,0,0.0,0.0,0,0.0,0.0,0,-40.975323,37.72124,100.401695,981.2482,25.317825,-34.467197,505.84106,-313.57013
-5.652073,-4.9817214,6.0744863,3.1507292,1.9833328,1.1655731,-318.0,172.0,85.0,1424337300.0,NoFix,12,0,0.0,0.0,0,0.0,0.0,0,-40.937614,37.829998,100.38395,981.2482,25.317825,-38.257652,514.0193,-325.32803
-5.7347193,-5.0046787,6.147949,1.8207289,7.0233326,-1.7044268,-324.0,167.0,84.0,1425639700.0,NoFix,12,0,0.0,0.0,0,0.0,0.0,0,-40.89917,37.846447,100.46026,981.2482,25.317825,-27.236382,504.10846,-326.96304
-5.730128,-5.169971,6.1387663,3.185729,6.533333,1.9355731,-323.0,166.0,81.0,1426942100.0,NoFix,12,0,0.0,0.0,0,0.0,0.0,0,-40.864014,37.848557,100.569145,981.24945,25.317825,-29.061039,502.3079,-332.70282
-5.9597,-4.843978,6.033163,5.3207293,3.7333326,5.0505733,-325.0,167.0,85.0,1428244500.0,NoFix,12,0,0.0,0.0,0,0.0,0.0,0,-40.537064,37.886223,100.71454,981.24945,25.317825,-25.40772,504.03854,-325.0278
-6.1984553,-4.6878686,5.9459257,1.8207289,-0.22166729,-0.40942687,-324.0,161.0,85.0,1429546900.0,NoFix,12,0,0.0,0.0,0,0.0,0.0,0,-40.2507,37.877583,100.89599,981.24945,25.317825,-27.085476,492.2828,-324.75928
-6.184681,-4.9312153,5.9918404,-0.559271,-0.046667337,-3.5944266,-322.0,163.0,81.0,1430849300.0,NoFix,12,0,0.0,0.0,0,0.0,0.0,0,-40.190144,37.81474,101.00705,981.24945,25.317825,-30.809366,496.44177,-332.57343
-6.069895,-5.036819,5.9964314,1.190729,1.0033327,-5.064427,-321.0,171.0,85.0,1432151900.0,NoFix,12,0,0.0,0.0,0,0.0,0.0,0,-40.222797,37.770573,100.961365,981.24945,25.317825,-32.777424,511.98547,-325.25238
-5.9321513,-5.1148734,5.858688,1.785729,3.5583327,-6.254427,-319.0,167.0,82.0,1433454100.0,NoFix,12,0,0.0,0.0,0,0.0,0.0,0,-40.329597,37.667118,101.025734,981.24945,25.317825,-36.35041,504.31885,-330.8628
-5.730128,-5.1653795,5.794408,-1.504271,1.7383327,-3.1744268,-322.0,165.0,82.0,1434756500.0,NoFix,12,0,0.0,0.0,0,0.0,0.0,0,-40.51999,37.56839,100.95282,981.24945,25.317825,-30.846655,500.32184,-330.74075
-5.564835,-5.1470137,5.8127737,-1.119271,-0.50166726,-0.33942682,-322.0,167.0,86.0,1436058900.0,NoFix,12,0,0.0,0.0,0,0.0,0.0,0,-40.712215,37.557293,100.75126,981.24945,25.317825,-30.854666,504.0627,-323.13162
-5.532695,-5.101099,5.8081822,0.63072896,-3.3366673,1.9005733,-323.0,173.0,86.0,1437361400.0,NoFix,12,0,0.0,0.0,0,0.0,0.0,0,-40.84699,37.620625,100.49339,981.24945,25.317825,-29.176912,515.8185,-323.40015
-5.5235124,-4.9817214,5.92756,3.1507292,-0.1866672,1.4105731,-321.0,160.0,85.0,1438663700.0,NoFix,12,0,0.0,0.0,0,0.0,0.0,0,-40.875908,37.729603,100.531296,981.24945,25.317825,-32.518654,490.39014,-324.74216
-5.6382985,-4.843978,6.060712,5.250729,4.2233324,-1.0394268,-324.0,168.0,84.0,1439966100.0,NoFix,12,0,0.0,0.0,0,0.0,0.0,0,-40.78507,37.838795,100.637924,981.24945,25.317825,-27.259907,506.07166,-327.00943
-5.7393107,-4.876118,6.0974436,3.2557292,1.5983326,-0.26942688,-323.0,169.0,84.0,1441268500.0,NoFix,12,0,0.0,0.0,0,0.0,0.0,0,-40.710587,37.937416,100.66381,981.24945,25.317825,-29.102333,508.0584,-327.06558
-5.7898164,-4.926624,6.060712,1.225729,-0.11666727,0.88557315,-325.0,167.0,76.0,1442570900.0,NoFix,12,0,0.0,0.0,0,0.0,0.0,0,-40.66127,37.997475,100.740005,981.24945,25.317825,-25.495556,504.456,-342.35706
-5.8770537,-4.967947,6.042346,-1.924271,-0.3266673,0.9205731,-326.0,167.0,81.0,1443873300.0,NoFix,12,0,0.0,0.0,0,0.0,0.0,0,-40.63866,37.988808,100.679115,981.24945,25.317825,-23.627855,504.20053,-332.7199
-5.9642916,-4.97713,6.0561204,-0.664271,0.09333277,0.010573149,-320.0,166.0,83.0,1445175700.0,NoFix,12,0,0.0,0.0,0,0.0,0.0,0,-40.592667,37.97667,100.68359,981.24506,25.317825,-34.498222,502.2857,-328.88116
-5.9918404,-5.0322275,6.0469375,0.31572902,0.44333267,-1.9494269,-323.0,171.0,81.0,1446478100.0,NoFix,12,0,0.0,0.0,0,0.0,0.0,0,-40.5846,37.956158,100.66828,981.24506,25.317825,-29.178661,512.12396,-332.93472
-5.8724623,-5.082733,6.0653033,0.945729,0.61833274,-0.7594269,-323.0,163.0,80.0,1447780500.0,NoFix,12,0,0.0,0.0,0,0.0,0.0,0,-40.602455,37.961224,100.72131,981.24506,25.317825,-29.000225,496.46466,-334.48914
-5.7576766,-5.110282,6.0285716,1.295729,2.7183328,-1.0394268,-321.0,167.0,81.0,1449082900.0,NoFix,12,0,0.0,0.0,0,0.0,0.0,0,-40.645798,37.94568,100.74285,981.24506,25.317825,-32.722363,504.31815,-332.76874
-5.720945,-5.211294,5.918377,2.765729,2.0533328,1.5855732,-324.0,166.0,79.0,1450385300.0,NoFix,12,0,0.0,0.0,0,0.0,0.0,0,-40.673958,37.917564,100.771385,981.24506,25.317825,-27.261652,502.37714,-336.544
-5.9229684,-4.8669353,5.8081822,3.7807293,1.0033327,3.9655733,-321.0,165.0,81.0,1451687700.0,NoFix,12,0,0.0,0.0,0,0.0,0.0,0,-40.471992,37.902386,100.91217,981.24554,25.322647,-32.675316,500.39172,-332.67596
-6.060712,-4.7567406,5.8449135,-0.45427102,2.7533326,-3.0694268,-322.0,159.0,81.0,1452990100.0,NoFix,12,0,0.0,0.0,0,0.0,0.0,0,-40.36635,37.816273,101.09044,981.24554,25.322647,-30.715267,488.58893,-332.3879
-5.978066,-5.0414104,5.987249,-1.7142711,0.58333266,-2.1244268,-323.0,169.0,79.0,1454292500.0,NoFix,12,0,0.0,0.0,0,0.0,0.0,0,-40.40671,37.765274,101.06479,981.24554,25.322647,-29.151129,508.2903,-336.69293
-5.9642916,-4.986313,6.069895,-1.819271,0.26833272,-0.19942689,-323.0,166.0,82.0,1455594900.0,NoFix,12,0,0.0,0.0,0,0.0,0.0,0,-40.399185,37.752506,101.033646,981.24554,25.322647,-29.05128,502.26154,-330.77737
-5.858688,-5.0689588,6.0056143,-1.854271,0.7583327,-0.8294268,-324.0,168.0,82.0,1456897300.0,NoFix,12,0,0.0,0.0,0,0.0,0.0,0,-40.45534,37.721424,100.95791,981.24554,25.322647,-27.279425,506.16443,-330.86038
